; C:\Data\Froehlich\Praktikum\2016-02-09_ignatiev\probe1.raw(Diffrac Plus V1.01 file) converted by XCH V1.0
_FILEVERSION=2
_SAMPLE='Probe1'
_SITE='II. Physikalisches Institut'
_ATTACHMENTS_CODE=0
_GONIOMETER_RADIUS=200.500000
_FIXED_DIVSLIT=2.000000
_FIXED_SAMPLESLIT=1.000000
_FIXED_DETSLIT=0.200000
_MONOCHROMATOR=0
; None
_THIN_FILM='N'
_BETA_FILTER='Y'
_FIXED_ANTISLIT=2.000000
_ANALYZER_CODE=0
; None
_DATEMEASURED='09-Feb-2016 18:08:43'
_WL_UNIT='A'
_WL1=1.540590
_WL2=1.544430
_WL3=1.392230
_WLRATIO=0.520000
_ANODE='Cu'
; (Data for Range number 1)
_DRIVE='COUPLED'
_STEPTIME=2.000000
_STEPSIZE=0.022000
_STEPMODE='C'
_START=12.000000
_THETA=6.000000
_2THETA=12.000000
_KHI=0.000000
_PHI=0.000000
_X=0.000000
_Y=0.000000
_Z=0.000000
_DIVERGENCE=0.000000
_ANTISCATTER=0.000000
_DETECTOR=1
; S.C.
_HV=1000.000000
_GAIN=80.000000
_LLD=0.550000
_ULD=1.310000
_DETECTORSLIT='unkn'
_AUX1=0.000000
_AUX2=0.000000
_AUX3=0.000000
_TIMESTARTED=18.000000
_ROTATION_SPEED=120.000000
_TEMP_RATE=-1.000000
_TEMP_DELAY=-1.000000
_KV=40
_MA=40
_RANGE_WL=1.540590
_3DPLANE=0
_2THETACOUNTS
  12.0000       302
  12.0220       294
  12.0440       268
  12.0660       305
  12.0880       315
  12.1100       290
  12.1320       288
  12.1540       295
  12.1760       291
  12.1980       316
  12.2200       296
  12.2420       304
  12.2640       315
  12.2860       290
  12.3080       305
  12.3300       321
  12.3520       326
  12.3740       290
  12.3960       295
  12.4180       293
  12.4400       289
  12.4620       307
  12.4840       311
  12.5060       266
  12.5280       285
  12.5500       321
  12.5720       308
  12.5940       317
  12.6160       296
  12.6380       300
  12.6600       296
  12.6820       287
  12.7040       285
  12.7260       263
  12.7480       309
  12.7700       273
  12.7920       320
  12.8140       294
  12.8360       273
  12.8580       301
  12.8800       293
  12.9020       302
  12.9240       306
  12.9460       287
  12.9680       310
  12.9900       296
  13.0120       320
  13.0340       271
  13.0560       276
  13.0780       283
  13.1000       295
  13.1220       271
  13.1440       281
  13.1660       310
  13.1880       269
  13.2100       294
  13.2320       279
  13.2540       260
  13.2760       267
  13.2980       318
  13.3200       279
  13.3420       279
  13.3640       301
  13.3860       288
  13.4080       281
  13.4300       289
  13.4520       276
  13.4740       294
  13.4960       268
  13.5180       289
  13.5400       255
  13.5620       298
  13.5840       310
  13.6060       287
  13.6280       294
  13.6500       295
  13.6720       279
  13.6940       290
  13.7160       282
  13.7380       307
  13.7600       320
  13.7820       275
  13.8040       273
  13.8260       301
  13.8480       313
  13.8700       299
  13.8920       289
  13.9140       301
  13.9360       309
  13.9580       293
  13.9800       305
  14.0020       299
  14.0240       305
  14.0460       300
  14.0680       293
  14.0900       284
  14.1120       286
  14.1340       315
  14.1560       305
  14.1780       276
  14.2000       307
  14.2220       300
  14.2440       312
  14.2660       320
  14.2880       288
  14.3100       282
  14.3320       314
  14.3540       311
  14.3760       290
  14.3980       269
  14.4200       271
  14.4420       295
  14.4640       303
  14.4860       285
  14.5080       272
  14.5300       278
  14.5520       295
  14.5740       287
  14.5960       301
  14.6180       286
  14.6400       302
  14.6620       297
  14.6840       298
  14.7060       287
  14.7280       267
  14.7500       273
  14.7720       287
  14.7940       301
  14.8160       286
  14.8380       322
  14.8600       284
  14.8820       317
  14.9040       305
  14.9260       322
  14.9480       278
  14.9700       313
  14.9920       280
  15.0140       295
  15.0360       289
  15.0580       268
  15.0800       268
  15.1020       270
  15.1240       332
  15.1460       295
  15.1680       298
  15.1900       291
  15.2120       271
  15.2340       289
  15.2560       317
  15.2780       282
  15.3000       281
  15.3220       275
  15.3440       307
  15.3660       288
  15.3880       306
  15.4100       289
  15.4320       245
  15.4540       280
  15.4760       314
  15.4980       283
  15.5200       290
  15.5420       294
  15.5640       308
  15.5860       294
  15.6080       307
  15.6300       298
  15.6520       312
  15.6740       296
  15.6960       291
  15.7180       302
  15.7400       305
  15.7620       294
  15.7840       327
  15.8060       281
  15.8280       285
  15.8500       314
  15.8720       308
  15.8940       324
  15.9160       314
  15.9380       297
  15.9600       313
  15.9820       300
  16.0040       313
  16.0260       316
  16.0480       268
  16.0700       313
  16.0920       278
  16.1140       266
  16.1360       308
  16.1580       320
  16.1800       297
  16.2020       335
  16.2240       315
  16.2460       282
  16.2680       303
  16.2900       302
  16.3120       319
  16.3340       293
  16.3560       281
  16.3780       309
  16.4000       314
  16.4220       303
  16.4440       335
  16.4660       314
  16.4880       304
  16.5100       358
  16.5320       351
  16.5540       288
  16.5760       333
  16.5980       331
  16.6200       275
  16.6420       301
  16.6640       321
  16.6860       283
  16.7080       291
  16.7300       314
  16.7520       331
  16.7740       316
  16.7960       355
  16.8180       305
  16.8400       328
  16.8620       312
  16.8840       310
  16.9060       302
  16.9280       337
  16.9500       318
  16.9720       335
  16.9940       300
  17.0160       305
  17.0380       322
  17.0600       313
  17.0820       325
  17.1040       333
  17.1260       327
  17.1480       321
  17.1700       331
  17.1920       347
  17.2140       376
  17.2360       282
  17.2580       340
  17.2800       333
  17.3020       308
  17.3240       323
  17.3460       339
  17.3680       325
  17.3900       331
  17.4120       336
  17.4340       294
  17.4560       342
  17.4780       295
  17.5000       336
  17.5220       299
  17.5440       303
  17.5660       308
  17.5880       299
  17.6100       342
  17.6320       361
  17.6540       345
  17.6760       303
  17.6980       322
  17.7200       333
  17.7420       322
  17.7640       357
  17.7860       327
  17.8080       309
  17.8300       327
  17.8520       315
  17.8740       344
  17.8960       305
  17.9180       364
  17.9400       356
  17.9620       330
  17.9840       324
  18.0060       321
  18.0280       345
  18.0500       332
  18.0720       349
  18.0940       347
  18.1160       313
  18.1380       342
  18.1600       327
  18.1820       311
  18.2040       316
  18.2260       336
  18.2480       310
  18.2700       374
  18.2920       372
  18.3140       348
  18.3360       333
  18.3580       383
  18.3800       319
  18.4020       323
  18.4240       332
  18.4460       339
  18.4680       327
  18.4900       348
  18.5120       335
  18.5340       317
  18.5560       344
  18.5780       358
  18.6000       402
  18.6220       385
  18.6440       361
  18.6660       373
  18.6880       356
  18.7100       359
  18.7320       314
  18.7540       335
  18.7760       363
  18.7980       363
  18.8200       364
  18.8420       351
  18.8640       347
  18.8860       335
  18.9080       384
  18.9300       361
  18.9520       352
  18.9740       361
  18.9960       371
  19.0180       338
  19.0400       347
  19.0620       378
  19.0840       351
  19.1060       332
  19.1280       363
  19.1500       380
  19.1720       377
  19.1940       361
  19.2160       402
  19.2380       349
  19.2600       360
  19.2820       338
  19.3040       373
  19.3260       375
  19.3480       348
  19.3700       378
  19.3920       372
  19.4140       351
  19.4360       350
  19.4580       362
  19.4800       377
  19.5020       388
  19.5240       392
  19.5460       365
  19.5680       392
  19.5900       379
  19.6120       377
  19.6340       377
  19.6560       373
  19.6780       386
  19.7000       383
  19.7220       391
  19.7440       377
  19.7660       395
  19.7880       367
  19.8100       360
  19.8320       382
  19.8540       386
  19.8760       350
  19.8980       398
  19.9200       392
  19.9420       369
  19.9640       361
  19.9860       387
  20.0080       349
  20.0300       362
  20.0520       407
  20.0740       396
  20.0960       380
  20.1180       365
  20.1400       352
  20.1620       394
  20.1840       424
  20.2060       391
  20.2280       346
  20.2500       385
  20.2720       383
  20.2940       384
  20.3160       378
  20.3380       401
  20.3600       360
  20.3820       381
  20.4040       375
  20.4260       392
  20.4480       374
  20.4700       393
  20.4920       403
  20.5140       423
  20.5360       413
  20.5580       381
  20.5800       364
  20.6020       382
  20.6240       405
  20.6460       374
  20.6680       420
  20.6900       420
  20.7120       392
  20.7340       404
  20.7560       423
  20.7780       415
  20.8000       421
  20.8220       348
  20.8440       373
  20.8660       376
  20.8880       411
  20.9100       390
  20.9320       400
  20.9540       379
  20.9760       423
  20.9980       403
  21.0200       406
  21.0420       409
  21.0640       424
  21.0860       388
  21.1080       446
  21.1300       388
  21.1520       395
  21.1740       420
  21.1960       393
  21.2180       401
  21.2400       394
  21.2620       408
  21.2840       365
  21.3060       401
  21.3280       412
  21.3500       421
  21.3720       422
  21.3940       442
  21.4160       455
  21.4380       390
  21.4600       439
  21.4820       415
  21.5040       437
  21.5260       413
  21.5480       416
  21.5700       413
  21.5920       381
  21.6140       409
  21.6360       457
  21.6580       423
  21.6800       409
  21.7020       418
  21.7240       406
  21.7460       427
  21.7680       434
  21.7900       416
  21.8120       413
  21.8340       397
  21.8560       447
  21.8780       407
  21.9000       449
  21.9220       384
  21.9440       406
  21.9660       454
  21.9880       401
  22.0100       408
  22.0320       427
  22.0540       420
  22.0760       453
  22.0980       437
  22.1200       427
  22.1420       450
  22.1640       407
  22.1860       457
  22.2080       443
  22.2300       428
  22.2520       422
  22.2740       447
  22.2960       420
  22.3180       464
  22.3400       437
  22.3620       460
  22.3840       427
  22.4060       413
  22.4280       436
  22.4500       433
  22.4720       447
  22.4940       408
  22.5160       446
  22.5380       415
  22.5600       454
  22.5820       493
  22.6040       446
  22.6260       438
  22.6480       434
  22.6700       441
  22.6920       419
  22.7140       444
  22.7360       443
  22.7580       469
  22.7800       474
  22.8020       432
  22.8240       432
  22.8460       423
  22.8680       437
  22.8900       482
  22.9120       421
  22.9340       409
  22.9560       434
  22.9780       443
  23.0000       481
  23.0220       440
  23.0440       449
  23.0660       423
  23.0880       480
  23.1100       434
  23.1320       432
  23.1540       410
  23.1760       446
  23.1980       411
  23.2200       431
  23.2420       414
  23.2640       445
  23.2860       469
  23.3080       448
  23.3300       468
  23.3520       451
  23.3740       497
  23.3960       442
  23.4180       439
  23.4400       460
  23.4620       439
  23.4840       432
  23.5060       454
  23.5280       447
  23.5500       444
  23.5720       421
  23.5940       433
  23.6160       432
  23.6380       448
  23.6600       435
  23.6820       447
  23.7040       455
  23.7260       470
  23.7480       426
  23.7700       480
  23.7920       463
  23.8140       434
  23.8360       452
  23.8580       457
  23.8800       465
  23.9020       447
  23.9240       439
  23.9460       474
  23.9680       460
  23.9900       458
  24.0120       476
  24.0340       410
  24.0560       451
  24.0780       446
  24.1000       444
  24.1220       423
  24.1440       480
  24.1660       454
  24.1880       420
  24.2100       446
  24.2320       498
  24.2540       455
  24.2760       475
  24.2980       472
  24.3200       472
  24.3420       465
  24.3640       444
  24.3860       482
  24.4080       432
  24.4300       449
  24.4520       452
  24.4740       444
  24.4960       447
  24.5180       473
  24.5400       454
  24.5620       452
  24.5840       451
  24.6060       448
  24.6280       480
  24.6500       413
  24.6720       438
  24.6940       446
  24.7160       445
  24.7380       483
  24.7600       445
  24.7820       434
  24.8040       458
  24.8260       463
  24.8480       462
  24.8700       461
  24.8920       426
  24.9140       412
  24.9360       458
  24.9580       413
  24.9800       447
  25.0020       438
  25.0240       454
  25.0460       436
  25.0680       430
  25.0900       465
  25.1120       474
  25.1340       428
  25.1560       499
  25.1780       466
  25.2000       449
  25.2220       430
  25.2440       448
  25.2660       461
  25.2880       432
  25.3100       450
  25.3320       451
  25.3540       417
  25.3760       443
  25.3980       423
  25.4200       428
  25.4420       399
  25.4640       431
  25.4860       448
  25.5080       448
  25.5300       428
  25.5520       447
  25.5740       418
  25.5960       456
  25.6180       406
  25.6400       440
  25.6620       437
  25.6840       451
  25.7060       496
  25.7280       433
  25.7500       447
  25.7720       451
  25.7940       426
  25.8160       435
  25.8380       476
  25.8600       469
  25.8820       444
  25.9040       456
  25.9260       471
  25.9480       446
  25.9700       456
  25.9920       428
  26.0140       456
  26.0360       462
  26.0580       458
  26.0800       439
  26.1020       411
  26.1240       492
  26.1460       433
  26.1680       430
  26.1900       474
  26.2120       452
  26.2340       448
  26.2560       488
  26.2780       437
  26.3000       423
  26.3220       434
  26.3440       479
  26.3660       448
  26.3880       428
  26.4100       428
  26.4320       446
  26.4540       433
  26.4760       453
  26.4980       438
  26.5200       436
  26.5420       439
  26.5640       455
  26.5860       461
  26.6080       464
  26.6300       431
  26.6520       448
  26.6740       436
  26.6960       459
  26.7180       457
  26.7400       498
  26.7620       462
  26.7840       443
  26.8060       402
  26.8280       465
  26.8500       467
  26.8720       443
  26.8940       460
  26.9160       427
  26.9380       439
  26.9600       460
  26.9820       462
  27.0040       433
  27.0260       447
  27.0480       477
  27.0700       447
  27.0920       411
  27.1140       439
  27.1360       479
  27.1580       449
  27.1800       439
  27.2020       432
  27.2240       445
  27.2460       458
  27.2680       442
  27.2900       469
  27.3120       476
  27.3340       458
  27.3560       469
  27.3780       441
  27.4000       462
  27.4220       406
  27.4440       435
  27.4660       431
  27.4880       443
  27.5100       434
  27.5320       469
  27.5540       461
  27.5760       446
  27.5980       459
  27.6200       465
  27.6420       454
  27.6640       416
  27.6860       438
  27.7080       496
  27.7300       442
  27.7520       462
  27.7740       422
  27.7960       427
  27.8180       433
  27.8400       421
  27.8620       440
  27.8840       462
  27.9060       438
  27.9280       435
  27.9500       428
  27.9720       454
  27.9940       453
  28.0160       455
  28.0380       441
  28.0600       426
  28.0820       433
  28.1040       448
  28.1260       442
  28.1480       456
  28.1700       466
  28.1920       456
  28.2140       435
  28.2360       463
  28.2580       406
  28.2800       462
  28.3020       460
  28.3240       449
  28.3460       444
  28.3680       479
  28.3900       471
  28.4120       440
  28.4340       452
  28.4560       384
  28.4780       489
  28.5000       429
  28.5220       449
  28.5440       453
  28.5660       453
  28.5880       453
  28.6100       448
  28.6320       486
  28.6540       458
  28.6760       433
  28.6980       451
  28.7200       423
  28.7420       446
  28.7640       411
  28.7860       446
  28.8080       437
  28.8300       411
  28.8520       466
  28.8740       406
  28.8960       498
  28.9180       410
  28.9400       441
  28.9620       418
  28.9840       468
  29.0060       435
  29.0280       443
  29.0500       432
  29.0720       426
  29.0940       451
  29.1160       450
  29.1380       420
  29.1600       430
  29.1820       445
  29.2040       455
  29.2260       416
  29.2480       476
  29.2700       443
  29.2920       442
  29.3140       426
  29.3360       457
  29.3580       427
  29.3800       423
  29.4020       440
  29.4240       480
  29.4460       435
  29.4680       423
  29.4900       484
  29.5120       430
  29.5340       415
  29.5560       439
  29.5780       455
  29.6000       458
  29.6220       403
  29.6440       399
  29.6660       420
  29.6880       465
  29.7100       414
  29.7320       441
  29.7540       411
  29.7760       410
  29.7980       429
  29.8200       440
  29.8420       437
  29.8640       408
  29.8860       434
  29.9080       429
  29.9300       441
  29.9520       407
  29.9740       374
  29.9960       437
  30.0180       441
  30.0400       377
  30.0620       424
  30.0840       443
  30.1060       456
  30.1280       434
  30.1500       411
  30.1720       442
  30.1940       426
  30.2160       437
  30.2380       411
  30.2600       418
  30.2820       394
  30.3040       449
  30.3260       430
  30.3480       404
  30.3700       396
  30.3920       427
  30.4140       426
  30.4360       427
  30.4580       406
  30.4800       408
  30.5020       437
  30.5240       430
  30.5460       451
  30.5680       443
  30.5900       389
  30.6120       437
  30.6340       450
  30.6560       438
  30.6780       424
  30.7000       410
  30.7220       396
  30.7440       414
  30.7660       417
  30.7880       433
  30.8100       473
  30.8320       390
  30.8540       398
  30.8760       464
  30.8980       423
  30.9200       427
  30.9420       448
  30.9640       449
  30.9860       421
  31.0080       435
  31.0300       433
  31.0520       440
  31.0740       407
  31.0960       473
  31.1180       426
  31.1400       400
  31.1620       417
  31.1840       423
  31.2060       420
  31.2280       372
  31.2500       431
  31.2720       451
  31.2940       435
  31.3160       437
  31.3380       447
  31.3600       441
  31.3820       432
  31.4040       431
  31.4260       429
  31.4480       405
  31.4700       448
  31.4920       443
  31.5140       433
  31.5360       458
  31.5580       436
  31.5800       427
  31.6020       451
  31.6240       472
  31.6460       455
  31.6680       397
  31.6900       460
  31.7120       442
  31.7340       439
  31.7560       419
  31.7780       411
  31.8000       414
  31.8220       416
  31.8440       417
  31.8660       443
  31.8880       434
  31.9100       460
  31.9320       416
  31.9540       465
  31.9760       449
  31.9980       417
  32.0200       425
  32.0420       454
  32.0640       378
  32.0860       415
  32.1080       415
  32.1300       440
  32.1520       399
  32.1740       408
  32.1960       401
  32.2180       446
  32.2400       412
  32.2620       391
  32.2840       383
  32.3060       396
  32.3280       422
  32.3500       428
  32.3720       378
  32.3940       416
  32.4160       399
  32.4380       390
  32.4600       376
  32.4820       447
  32.5040       358
  32.5260       410
  32.5480       433
  32.5700       436
  32.5920       424
  32.6140       393
  32.6360       396
  32.6580       417
  32.6800       423
  32.7020       415
  32.7240       389
  32.7460       366
  32.7680       423
  32.7900       401
  32.8120       400
  32.8340       394
  32.8560       424
  32.8780       382
  32.9000       387
  32.9220       417
  32.9440       435
  32.9660       375
  32.9880       383
  33.0100       385
  33.0320       399
  33.0540       419
  33.0760       399
  33.0980       433
  33.1200       402
  33.1420       389
  33.1640       415
  33.1860       424
  33.2080       425
  33.2300       408
  33.2520       412
  33.2740       384
  33.2960       396
  33.3180       394
  33.3400       425
  33.3620       404
  33.3840       423
  33.4060       344
  33.4280       378
  33.4500       400
  33.4720       410
  33.4940       396
  33.5160       389
  33.5380       423
  33.5600       403
  33.5820       428
  33.6040       417
  33.6260       371
  33.6480       405
  33.6700       432
  33.6920       366
  33.7140       394
  33.7360       416
  33.7580       372
  33.7800       436
  33.8020       380
  33.8240       384
  33.8460       375
  33.8680       401
  33.8900       393
  33.9120       404
  33.9340       447
  33.9560       380
  33.9780       401
  34.0000       429
  34.0220       370
  34.0440       383
  34.0660       412
  34.0880       361
  34.1100       373
  34.1320       407
  34.1540       425
  34.1760       410
  34.1980       408
  34.2200       378
  34.2420       394
  34.2640       422
  34.2860       403
  34.3080       413
  34.3300       411
  34.3520       416
  34.3740       415
  34.3960       409
  34.4180       378
  34.4400       449
  34.4620       393
  34.4840       412
  34.5060       390
  34.5280       384
  34.5500       405
  34.5720       415
  34.5940       396
  34.6160       398
  34.6380       377
  34.6600       394
  34.6820       399
  34.7040       390
  34.7260       407
  34.7480       402
  34.7700       361
  34.7920       425
  34.8140       395
  34.8360       424
  34.8580       410
  34.8800       414
  34.9020       373
  34.9240       388
  34.9460       397
  34.9680       404
  34.9900       405
  35.0120       375
  35.0340       379
  35.0560       416
  35.0780       431
  35.1000       403
  35.1220       347
  35.1440       424
  35.1660       409
  35.1880       385
  35.2100       402
  35.2320       357
  35.2540       376
  35.2760       364
  35.2980       387
  35.3200       384
  35.3420       392
  35.3640       404
  35.3860       421
  35.4080       374
  35.4300       336
  35.4520       386
  35.4740       348
  35.4960       390
  35.5180       371
  35.5400       402
  35.5620       385
  35.5840       365
  35.6060       412
  35.6280       385
  35.6500       407
  35.6720       373
  35.6940       362
  35.7160       403
  35.7380       430
  35.7600       405
  35.7820       382
  35.8040       406
  35.8260       374
  35.8480       385
  35.8700       396
  35.8920       382
  35.9140       405
  35.9360       385
  35.9580       358
  35.9800       385
  36.0020       400
  36.0240       377
  36.0460       437
  36.0680       386
  36.0900       381
  36.1120       387
  36.1340       384
  36.1560       457
  36.1780       374
  36.2000       381
  36.2220       380
  36.2440       356
  36.2660       385
  36.2880       401
  36.3100       421
  36.3320       374
  36.3540       360
  36.3760       409
  36.3980       375
  36.4200       397
  36.4420       374
  36.4640       394
  36.4860       397
  36.5080       389
  36.5300       378
  36.5520       388
  36.5740       359
  36.5960       388
  36.6180       365
  36.6400       404
  36.6620       398
  36.6840       401
  36.7060       418
  36.7280       376
  36.7500       371
  36.7720       388
  36.7940       376
  36.8160       371
  36.8380       337
  36.8600       386
  36.8820       359
  36.9040       369
  36.9260       396
  36.9480       386
  36.9700       399
  36.9920       396
  37.0140       367
  37.0360       375
  37.0580       367
  37.0800       389
  37.1020       400
  37.1240       392
  37.1460       408
  37.1680       325
  37.1900       388
  37.2120       367
  37.2340       392
  37.2560       402
  37.2780       360
  37.3000       382
  37.3220       358
  37.3440       381
  37.3660       395
  37.3880       404
  37.4100       389
  37.4320       440
  37.4540       390
  37.4760       399
  37.4980       397
  37.5200       373
  37.5420       372
  37.5640       419
  37.5860       408
  37.6080       411
  37.6300       419
  37.6520       409
  37.6740       428
  37.6960       410
  37.7180       442
  37.7400       455
  37.7620       443
  37.7840       444
  37.8060       427
  37.8280       405
  37.8500       421
  37.8720       391
  37.8940       426
  37.9160       438
  37.9380       388
  37.9600       401
  37.9820       430
  38.0040       436
  38.0260       389
  38.0480       355
  38.0700       408
  38.0920       409
  38.1140       403
  38.1360       457
  38.1580       410
  38.1800       437
  38.2020       446
  38.2240       452
  38.2460       457
  38.2680       498
  38.2900       486
  38.3120       486
  38.3340       472
  38.3560       463
  38.3780       500
  38.4000       484
  38.4220       471
  38.4440       459
  38.4660       435
  38.4880       454
  38.5100       440
  38.5320       411
  38.5540       397
  38.5760       415
  38.5980       386
  38.6200       418
  38.6420       404
  38.6640       413
  38.6860       409
  38.7080       407
  38.7300       382
  38.7520       419
  38.7740       398
  38.7960       376
  38.8180       395
  38.8400       410
  38.8620       398
  38.8840       373
  38.9060       392
  38.9280       383
  38.9500       417
  38.9720       380
  38.9940       385
  39.0160       416
  39.0380       376
  39.0600       432
  39.0820       414
  39.1040       389
  39.1260       385
  39.1480       355
  39.1700       401
  39.1920       380
  39.2140       367
  39.2360       443
  39.2580       400
  39.2800       389
  39.3020       389
  39.3240       370
  39.3460       412
  39.3680       363
  39.3900       409
  39.4120       385
  39.4340       383
  39.4560       411
  39.4780       394
  39.5000       388
  39.5220       373
  39.5440       381
  39.5660       392
  39.5880       369
  39.6100       372
  39.6320       374
  39.6540       402
  39.6760       401
  39.6980       371
  39.7200       422
  39.7420       397
  39.7640       391
  39.7860       356
  39.8080       395
  39.8300       402
  39.8520       374
  39.8740       406
  39.8960       378
  39.9180       366
  39.9400       409
  39.9620       379
  39.9840       447
  40.0060       404
  40.0280       396
  40.0500       401
  40.0720       429
  40.0940       427
  40.1160       397
  40.1380       422
  40.1600       395
  40.1820       428
  40.2040       408
  40.2260       426
  40.2480       421
  40.2700       431
  40.2920       393
  40.3140       439
  40.3360       414
  40.3580       412
  40.3800       423
  40.4020       441
  40.4240       429
  40.4460       447
  40.4680       418
  40.4900       403
  40.5120       424
  40.5340       456
  40.5560       453
  40.5780       453
  40.6000       458
  40.6220       443
  40.6440       481
  40.6660       452
  40.6880       423
  40.7100       436
  40.7320       465
  40.7540       477
  40.7760       443
  40.7980       436
  40.8200       447
  40.8420       445
  40.8640       430
  40.8860       438
  40.9080       470
  40.9300       477
  40.9520       434
  40.9740       460
  40.9960       476
  41.0180       486
  41.0400       506
  41.0620       441
  41.0840       435
  41.1060       472
  41.1280       469
  41.1500       455
  41.1720       490
  41.1940       511
  41.2160       508
  41.2380       549
  41.2600       559
  41.2820       627
  41.3040       600
  41.3260       570
  41.3480       618
  41.3700       641
  41.3920       642
  41.4140       674
  41.4360       689
  41.4580       791
  41.4800       834
  41.5020       878
  41.5240       931
  41.5460      1021
  41.5680      1107
  41.5900      1152
  41.6120      1336
  41.6340      1451
  41.6560      1622
  41.6780      1793
  41.7000      2031
  41.7220      2327
  41.7440      2527
  41.7660      2870
  41.7880      3142
  41.8100      3529
  41.8320      3731
  41.8540      3761
  41.8760      4071
  41.8980      4131
  41.9200      3923
  41.9420      3927
  41.9640      3672
  41.9860      3482
  42.0080      3242
  42.0300      2759
  42.0520      2634
  42.0740      2237
  42.0960      1974
  42.1180      1769
  42.1400      1545
  42.1620      1372
  42.1840      1231
  42.2060      1120
  42.2280      1038
  42.2500       921
  42.2720       886
  42.2940       822
  42.3160       772
  42.3380       718
  42.3600       675
  42.3820       651
  42.4040       642
  42.4260       593
  42.4480       543
  42.4700       583
  42.4920       541
  42.5140       531
  42.5360       511
  42.5580       501
  42.5800       492
  42.6020       492
  42.6240       509
  42.6460       437
  42.6680       492
  42.6900       492
  42.7120       478
  42.7340       492
  42.7560       464
  42.7780       424
  42.8000       428
  42.8220       477
  42.8440       422
  42.8660       445
  42.8880       474
  42.9100       420
  42.9320       438
  42.9540       461
  42.9760       433
  42.9980       444
  43.0200       415
  43.0420       402
  43.0640       435
  43.0860       454
  43.1080       421
  43.1300       451
  43.1520       415
  43.1740       437
  43.1960       409
  43.2180       418
  43.2400       408
  43.2620       411
  43.2840       440
  43.3060       448
  43.3280       438
  43.3500       436
  43.3720       437
  43.3940       443
  43.4160       373
  43.4380       413
  43.4600       463
  43.4820       438
  43.5040       417
  43.5260       420
  43.5480       448
  43.5700       459
  43.5920       435
  43.6140       456
  43.6360       443
  43.6580       432
  43.6800       423
  43.7020       429
  43.7240       450
  43.7460       440
  43.7680       448
  43.7900       413
  43.8120       407
  43.8340       465
  43.8560       438
  43.8780       441
  43.9000       392
  43.9220       404
  43.9440       425
  43.9660       436
  43.9880       440
  44.0100       406
  44.0320       473
  44.0540       424
  44.0760       398
  44.0980       426
  44.1200       423
  44.1420       423
  44.1640       417
  44.1860       375
  44.2080       431
  44.2300       425
  44.2520       402
  44.2740       414
  44.2960       395
  44.3180       423
  44.3400       427
  44.3620       403
  44.3840       409
  44.4060       385
  44.4280       418
  44.4500       415
  44.4720       395
  44.4940       451
  44.5160       422
  44.5380       394
  44.5600       403
  44.5820       406
  44.6040       413
  44.6260       418
  44.6480       435
  44.6700       406
  44.6920       365
  44.7140       401
  44.7360       406
  44.7580       403
  44.7800       411
  44.8020       393
  44.8240       396
  44.8460       419
  44.8680       399
  44.8900       377
  44.9120       391
  44.9340       420
  44.9560       412
  44.9780       405
  45.0000       387
  45.0220       432
  45.0440       427
  45.0660       422
  45.0880       398
  45.1100       388
  45.1320       378
  45.1540       411
  45.1760       405
  45.1980       395
  45.2200       379
  45.2420       412
  45.2640       409
  45.2860       381
  45.3080       395
  45.3300       394
  45.3520       388
  45.3740       425
  45.3960       384
  45.4180       402
  45.4400       374
  45.4620       406
  45.4840       402
  45.5060       374
  45.5280       406
  45.5500       388
  45.5720       416
  45.5940       382
  45.6160       382
  45.6380       364
  45.6600       397
  45.6820       426
  45.7040       381
  45.7260       384
  45.7480       369
  45.7700       396
  45.7920       419
  45.8140       407
  45.8360       410
  45.8580       385
  45.8800       392
  45.9020       417
  45.9240       355
  45.9460       393
  45.9680       421
  45.9900       413
  46.0120       429
  46.0340       414
  46.0560       415
  46.0780       433
  46.1000       435
  46.1220       434
  46.1440       373
  46.1660       409
  46.1880       404
  46.2100       375
  46.2320       411
  46.2540       430
  46.2760       404
  46.2980       397
  46.3200       417
  46.3420       385
  46.3640       390
  46.3860       396
  46.4080       417
  46.4300       408
  46.4520       398
  46.4740       415
  46.4960       398
  46.5180       393
  46.5400       393
  46.5620       394
  46.5840       427
  46.6060       434
  46.6280       417
  46.6500       408
  46.6720       387
  46.6940       416
  46.7160       421
  46.7380       396
  46.7600       428
  46.7820       420
  46.8040       404
  46.8260       381
  46.8480       420
  46.8700       463
  46.8920       418
  46.9140       430
  46.9360       440
  46.9580       415
  46.9800       442
  47.0020       460
  47.0240       401
  47.0460       472
  47.0680       371
  47.0900       426
  47.1120       425
  47.1340       403
  47.1560       422
  47.1780       410
  47.2000       401
  47.2220       402
  47.2440       426
  47.2660       427
  47.2880       434
  47.3100       422
  47.3320       446
  47.3540       467
  47.3760       451
  47.3980       411
  47.4200       431
  47.4420       445
  47.4640       443
  47.4860       448
  47.5080       440
  47.5300       467
  47.5520       473
  47.5740       448
  47.5960       451
  47.6180       469
  47.6400       446
  47.6620       493
  47.6840       481
  47.7060       497
  47.7280       453
  47.7500       481
  47.7720       501
  47.7940       464
  47.8160       519
  47.8380       515
  47.8600       538
  47.8820       523
  47.9040       536
  47.9260       532
  47.9480       578
  47.9700       600
  47.9920       590
  48.0140       652
  48.0360       640
  48.0580       630
  48.0800       695
  48.1020       707
  48.1240       740
  48.1460       730
  48.1680       822
  48.1900       861
  48.2120       885
  48.2340       956
  48.2560      1028
  48.2780      1063
  48.3000      1039
  48.3220      1138
  48.3440      1214
  48.3660      1338
  48.3880      1385
  48.4100      1546
  48.4320      1653
  48.4540      1675
  48.4760      1837
  48.4980      1941
  48.5200      1999
  48.5420      2072
  48.5640      2306
  48.5860      2289
  48.6080      2440
  48.6300      2404
  48.6520      2512
  48.6740      2386
  48.6960      2523
  48.7180      2412
  48.7400      2396
  48.7620      2278
  48.7840      2300
  48.8060      2053
  48.8280      2025
  48.8500      1906
  48.8720      1791
  48.8940      1553
  48.9160      1506
  48.9380      1411
  48.9600      1324
  48.9820      1203
  49.0040      1170
  49.0260      1027
  49.0480       961
  49.0700       905
  49.0920       926
  49.1140       833
  49.1360       788
  49.1580       703
  49.1800       714
  49.2020       692
  49.2240       643
  49.2460       622
  49.2680       618
  49.2900       589
  49.3120       570
  49.3340       545
  49.3560       517
  49.3780       538
  49.4000       565
  49.4220       507
  49.4440       485
  49.4660       503
  49.4880       476
  49.5100       511
  49.5320       510
  49.5540       461
  49.5760       459
  49.5980       477
  49.6200       458
  49.6420       446
  49.6640       449
  49.6860       417
  49.7080       450
  49.7300       424
  49.7520       405
  49.7740       446
  49.7960       425
  49.8180       452
  49.8400       426
  49.8620       415
  49.8840       442
  49.9060       415
  49.9280       394
  49.9500       394
  49.9720       451
  49.9940       419
  50.0160       426
  50.0380       441
  50.0600       386
  50.0820       431
  50.1040       403
  50.1260       449
  50.1480       420
  50.1700       420
  50.1920       416
  50.2140       423
  50.2360       425
  50.2580       414
  50.2800       392
  50.3020       393
  50.3240       402
  50.3460       414
  50.3680       455
  50.3900       412
  50.4120       404
  50.4340       437
  50.4560       384
  50.4780       429
  50.5000       402
  50.5220       436
  50.5440       393
  50.5660       370
  50.5880       436
  50.6100       405
  50.6320       393
  50.6540       396
  50.6760       395
  50.6980       404
  50.7200       404
  50.7420       415
  50.7640       405
  50.7860       381
  50.8080       382
  50.8300       406
  50.8520       403
  50.8740       425
  50.8960       440
  50.9180       413
  50.9400       386
  50.9620       394
  50.9840       423
  51.0060       425
  51.0280       413
  51.0500       405
  51.0720       416
  51.0940       416
  51.1160       397
  51.1380       419
  51.1600       423
  51.1820       409
  51.2040       407
  51.2260       403
  51.2480       370
  51.2700       411
  51.2920       387
  51.3140       386
  51.3360       394
  51.3580       391
  51.3800       363
  51.4020       383
  51.4240       389
  51.4460       379
  51.4680       398
  51.4900       376
  51.5120       461
  51.5340       394
  51.5560       393
  51.5780       393
  51.6000       398
  51.6220       386
  51.6440       382
  51.6660       383
  51.6880       387
  51.7100       381
  51.7320       389
  51.7540       373
  51.7760       406
  51.7980       414
  51.8200       392
  51.8420       384
  51.8640       386
  51.8860       384
  51.9080       414
  51.9300       404
  51.9520       423
  51.9740       379
  51.9960       403
  52.0180       386
  52.0400       402
  52.0620       390
  52.0840       385
  52.1060       397
  52.1280       397
  52.1500       382
  52.1720       392
  52.1940       410
  52.2160       428
  52.2380       442
  52.2600       383
  52.2820       390
  52.3040       386
  52.3260       402
  52.3480       420
  52.3700       408
  52.3920       396
  52.4140       410
  52.4360       397
  52.4580       399
  52.4800       361
  52.5020       410
  52.5240       420
  52.5460       388
  52.5680       363
  52.5900       408
  52.6120       398
  52.6340       386
  52.6560       384
  52.6780       404
  52.7000       390
  52.7220       421
  52.7440       415
  52.7660       395
  52.7880       446
  52.8100       432
  52.8320       401
  52.8540       430
  52.8760       391
  52.8980       386
  52.9200       411
  52.9420       429
  52.9640       391
  52.9860       419
  53.0080       402
  53.0300       417
  53.0520       408
  53.0740       415
  53.0960       405
  53.1180       444
  53.1400       364
  53.1620       386
  53.1840       418
  53.2060       407
  53.2280       390
  53.2500       426
  53.2720       401
  53.2940       410
  53.3160       391
  53.3380       403
  53.3600       411
  53.3820       382
  53.4040       422
  53.4260       374
  53.4480       393
  53.4700       377
  53.4920       403
  53.5140       374
  53.5360       373
  53.5580       384
  53.5800       405
  53.6020       410
  53.6240       381
  53.6460       435
  53.6680       419
  53.6900       376
  53.7120       448
  53.7340       390
  53.7560       386
  53.7780       382
  53.8000       404
  53.8220       412
  53.8440       417
  53.8660       410
  53.8880       432
  53.9100       382
  53.9320       395
  53.9540       426
  53.9760       373
  53.9980       351
  54.0200       406
  54.0420       401
  54.0640       435
  54.0860       392
  54.1080       405
  54.1300       416
  54.1520       390
  54.1740       408
  54.1960       409
  54.2180       411
  54.2400       425
  54.2620       380
  54.2840       404
  54.3060       377
  54.3280       430
  54.3500       340
  54.3720       416
  54.3940       425
  54.4160       398
  54.4380       404
  54.4600       380
  54.4820       416
  54.5040       413
  54.5260       394
  54.5480       390
  54.5700       358
  54.5920       389
  54.6140       387
  54.6360       373
  54.6580       373
  54.6800       418
  54.7020       381
  54.7240       418
  54.7460       390
  54.7680       383
  54.7900       362
  54.8120       392
  54.8340       376
  54.8560       404
  54.8780       384
  54.9000       361
  54.9220       353
  54.9440       400
  54.9660       384
  54.9880       377
  55.0100       408
  55.0320       393
  55.0540       437
  55.0760       427
  55.0980       398
  55.1200       394
  55.1420       389
  55.1640       416
  55.1860       418
  55.2080       400
  55.2300       411
  55.2520       358
  55.2740       376
  55.2960       379
  55.3180       388
  55.3400       406
  55.3620       401
  55.3840       396
  55.4060       381
  55.4280       377
  55.4500       389
  55.4720       404
  55.4940       425
  55.5160       437
  55.5380       339
  55.5600       402
  55.5820       396
  55.6040       420
  55.6260       425
  55.6480       377
  55.6700       418
  55.6920       400
  55.7140       408
  55.7360       402
  55.7580       401
  55.7800       397
  55.8020       382
  55.8240       385
  55.8460       385
  55.8680       394
  55.8900       418
  55.9120       411
  55.9340       413
  55.9560       422
  55.9780       398
  56.0000       423
  56.0220       418
  56.0440       421
  56.0660       390
  56.0880       420
  56.1100       369
  56.1320       398
  56.1540       427
  56.1760       377
  56.1980       423
  56.2200       397
  56.2420       434
  56.2640       415
  56.2860       409
  56.3080       391
  56.3300       378
  56.3520       429
  56.3740       380
  56.3960       382
  56.4180       379
  56.4400       400
  56.4620       386
  56.4840       438
  56.5060       386
  56.5280       411
  56.5500       406
  56.5720       369
  56.5940       395
  56.6160       440
  56.6380       408
  56.6600       418
  56.6820       391
  56.7040       437
  56.7260       408
  56.7480       386
  56.7700       391
  56.7920       385
  56.8140       428
  56.8360       400
  56.8580       363
  56.8800       399
  56.9020       410
  56.9240       403
  56.9460       412
  56.9680       427
  56.9900       411
  57.0120       361
  57.0340       366
  57.0560       414
  57.0780       421
  57.1000       405
  57.1220       408
  57.1440       399
  57.1660       395
  57.1880       406
  57.2100       398
  57.2320       388
  57.2540       382
  57.2760       396
  57.2980       423
  57.3200       431
  57.3420       411
  57.3640       397
  57.3860       426
  57.4080       398
  57.4300       392
  57.4520       412
  57.4740       353
  57.4960       414
  57.5180       398
  57.5400       415
  57.5620       431
  57.5840       387
  57.6060       359
  57.6280       390
  57.6500       416
  57.6720       376
  57.6940       381
  57.7160       424
  57.7380       415
  57.7600       437
  57.7820       406
  57.8040       426
  57.8260       396
  57.8480       427
  57.8700       404
  57.8920       429
  57.9140       414
  57.9360       387
  57.9580       426
  57.9800       428
  58.0020       413
  58.0240       421
  58.0460       437
  58.0680       403
  58.0900       412
  58.1120       409
  58.1340       423
  58.1560       419
  58.1780       380
  58.2000       390
  58.2220       401
  58.2440       391
  58.2660       383
  58.2880       410
  58.3100       389
  58.3320       406
  58.3540       395
  58.3760       396
  58.3980       426
  58.4200       387
  58.4420       372
  58.4640       427
  58.4860       389
  58.5080       400
  58.5300       400
  58.5520       399
  58.5740       404
  58.5960       395
  58.6180       410
  58.6400       404
  58.6620       422
  58.6840       389
  58.7060       401
  58.7280       399
  58.7500       422
  58.7720       391
  58.7940       416
  58.8160       413
  58.8380       399
  58.8600       398
  58.8820       437
  58.9040       402
  58.9260       413
  58.9480       416
  58.9700       352
  58.9920       400
  59.0140       392
  59.0360       392
  59.0580       418
  59.0800       420
  59.1020       411
  59.1240       380
  59.1460       473
  59.1680       437
  59.1900       391
  59.2120       417
  59.2340       400
  59.2560       373
  59.2780       396
  59.3000       406
  59.3220       419
  59.3440       396
  59.3660       420
  59.3880       398
  59.4100       401
  59.4320       358
  59.4540       387
  59.4760       412
  59.4980       383
  59.5200       423
  59.5420       417
  59.5640       380
  59.5860       437
  59.6080       422
  59.6300       427
  59.6520       391
  59.6740       395
  59.6960       416
  59.7180       421
  59.7400       394
  59.7620       402
  59.7840       429
  59.8060       423
  59.8280       430
  59.8500       376
  59.8720       420
  59.8940       450
  59.9160       423
  59.9380       399
  59.9600       413
  59.9820       412
  60.0040       398
  60.0260       400
  60.0480       378
  60.0700       389
  60.0920       431
  60.1140       428
  60.1360       424
  60.1580       408
  60.1800       417
  60.2020       390
  60.2240       416
  60.2460       389
  60.2680       388
  60.2900       449
  60.3120       400
  60.3340       372
  60.3560       416
  60.3780       383
  60.4000       358
  60.4220       429
  60.4440       405
  60.4660       410
  60.4880       396
  60.5100       433
  60.5320       391
  60.5540       416
  60.5760       357
  60.5980       428
  60.6200       391
  60.6420       389
  60.6640       409
  60.6860       414
  60.7080       379
  60.7300       398
  60.7520       387
  60.7740       399
  60.7960       384
  60.8180       398
  60.8400       401
  60.8620       383
  60.8840       399
  60.9060       396
  60.9280       445
  60.9500       432
  60.9720       433
  60.9940       400
  61.0160       394
  61.0380       386
  61.0600       386
  61.0820       380
  61.1040       394
  61.1260       376
  61.1480       423
  61.1700       402
  61.1920       422
  61.2140       434
  61.2360       364
  61.2580       442
  61.2800       410
  61.3020       399
  61.3240       394
  61.3460       383
  61.3680       429
  61.3900       412
  61.4120       397
  61.4340       420
  61.4560       418
  61.4780       391
  61.5000       424
  61.5220       408
  61.5440       400
  61.5660       381
  61.5880       421
  61.6100       400
  61.6320       411
  61.6540       412
  61.6760       389
  61.6980       399
  61.7200       412
  61.7420       439
  61.7640       403
  61.7860       444
  61.8080       453
  61.8300       410
  61.8520       387
  61.8740       440
  61.8960       427
  61.9180       405
  61.9400       404
  61.9620       425
  61.9840       373
  62.0060       422
  62.0280       404
  62.0500       425
  62.0720       414
  62.0940       440
  62.1160       398
  62.1380       414
  62.1600       393
  62.1820       409
  62.2040       385
  62.2260       430
  62.2480       448
  62.2700       397
  62.2920       394
  62.3140       428
  62.3360       432
  62.3580       442
  62.3800       426
  62.4020       439
  62.4240       420
  62.4460       376
  62.4680       386
  62.4900       422
  62.5120       395
  62.5340       413
  62.5560       400
  62.5780       415
  62.6000       391
  62.6220       394
  62.6440       408
  62.6660       430
  62.6880       378
  62.7100       394
  62.7320       422
  62.7540       398
  62.7760       419
  62.7980       379
  62.8200       413
  62.8420       426
  62.8640       407
  62.8860       400
  62.9080       425
  62.9300       439
  62.9520       415
  62.9740       424
  62.9960       410
  63.0180       431
  63.0400       418
  63.0620       417
  63.0840       439
  63.1060       478
  63.1280       463
  63.1500       432
  63.1720       443
  63.1940       436
  63.2160       397
  63.2380       417
  63.2600       415
  63.2820       450
  63.3040       392
  63.3260       405
  63.3480       414
  63.3700       417
  63.3920       420
  63.4140       453
  63.4360       399
  63.4580       448
  63.4800       397
  63.5020       402
  63.5240       423
  63.5460       448
  63.5680       408
  63.5900       421
  63.6120       447
  63.6340       408
  63.6560       426
  63.6780       435
  63.7000       398
  63.7220       443
  63.7440       415
  63.7660       418
  63.7880       399
  63.8100       430
  63.8320       401
  63.8540       402
  63.8760       441
  63.8980       434
  63.9200       429
  63.9420       438
  63.9640       399
  63.9860       407
  64.0080       397
  64.0300       413
  64.0520       411
  64.0740       383
  64.0960       418
  64.1180       420
  64.1400       439
  64.1620       444
  64.1840       445
  64.2060       395
  64.2280       429
  64.2500       442
  64.2720       381
  64.2940       411
  64.3160       376
  64.3380       441
  64.3600       427
  64.3820       436
  64.4040       471
  64.4260       403
  64.4480       435
  64.4700       517
  64.4920       488
  64.5140       444
  64.5360       455
  64.5580       448
  64.5800       495
  64.6020       434
  64.6240       476
  64.6460       482
  64.6680       454
  64.6900       495
  64.7120       419
  64.7340       456
  64.7560       454
  64.7780       467
  64.8000       438
  64.8220       451
  64.8440       457
  64.8660       470
  64.8880       454
  64.9100       429
  64.9320       424
  64.9540       422
  64.9760       410
  64.9980       458
  65.0200       416
  65.0420       404
  65.0640       401
  65.0860       420
  65.1080       446
  65.1300       405
  65.1520       454
  65.1740       413
  65.1960       424
  65.2180       412
  65.2400       381
  65.2620       387
  65.2840       392
  65.3060       415
  65.3280       404
  65.3500       409
  65.3720       428
  65.3940       435
  65.4160       413
  65.4380       392
  65.4600       447
  65.4820       435
  65.5040       420
  65.5260       421
  65.5480       409
  65.5700       403
  65.5920       435
  65.6140       449
  65.6360       384
  65.6580       447
  65.6800       397
  65.7020       427
  65.7240       435
  65.7460       393
  65.7680       419
  65.7900       389
  65.8120       411
  65.8340       391
  65.8560       369
  65.8780       414
  65.9000       407
  65.9220       413
  65.9440       398
  65.9660       421
  65.9880       436
  66.0100       389
  66.0320       399
  66.0540       408
  66.0760       418
  66.0980       436
  66.1200       451
  66.1420       429
  66.1640       380
  66.1860       399
  66.2080       422
  66.2300       453
  66.2520       405
  66.2740       413
  66.2960       434
  66.3180       384
  66.3400       402
  66.3620       416
  66.3840       398
  66.4060       405
  66.4280       409
  66.4500       380
  66.4720       405
  66.4940       402
  66.5160       378
  66.5380       412
  66.5600       443
  66.5820       370
  66.6040       418
  66.6260       418
  66.6480       388
  66.6700       395
  66.6920       459
  66.7140       439
  66.7360       393
  66.7580       413
  66.7800       387
  66.8020       410
  66.8240       421
  66.8460       419
  66.8680       418
  66.8900       385
  66.9120       407
  66.9340       435
  66.9560       418
  66.9780       400
  67.0000       404
  67.0220       426
  67.0440       384
  67.0660       439
  67.0880       423
  67.1100       470
  67.1320       431
  67.1540       421
  67.1760       393
  67.1980       415
  67.2200       416
  67.2420       417
  67.2640       424
  67.2860       434
  67.3080       357
  67.3300       412
  67.3520       401
  67.3740       429
  67.3960       416
  67.4180       463
  67.4400       418
  67.4620       382
  67.4840       373
  67.5060       400
  67.5280       432
  67.5500       412
  67.5720       425
  67.5940       405
  67.6160       462
  67.6380       429
  67.6600       391
  67.6820       395
  67.7040       427
  67.7260       454
  67.7480       387
  67.7700       398
  67.7920       441
  67.8140       388
  67.8360       397
  67.8580       384
  67.8800       401
  67.9020       396
  67.9240       427
  67.9460       443
  67.9680       403
  67.9900       436
  68.0120       377
  68.0340       432
  68.0560       423
  68.0780       412
  68.1000       439
  68.1220       466
  68.1440       430
  68.1660       423
  68.1880       440
  68.2100       407
  68.2320       376
  68.2540       443
  68.2760       461
  68.2980       425
  68.3200       460
  68.3420       416
  68.3640       419
  68.3860       408
  68.4080       390
  68.4300       409
  68.4520       462
  68.4740       444
  68.4960       440
  68.5180       427
  68.5400       424
  68.5620       407
  68.5840       445
  68.6060       390
  68.6280       439
  68.6500       489
  68.6720       384
  68.6940       405
  68.7160       452
  68.7380       414
  68.7600       407
  68.7820       386
  68.8040       437
  68.8260       425
  68.8480       428
  68.8700       405
  68.8920       406
  68.9140       421
  68.9360       454
  68.9580       450
  68.9800       409
  69.0020       425
  69.0240       448
  69.0460       427
  69.0680       466
  69.0900       444
  69.1120       377
  69.1340       442
  69.1560       411
  69.1780       426
  69.2000       465
  69.2220       398
  69.2440       432
  69.2660       443
  69.2880       418
  69.3100       412
  69.3320       429
  69.3540       390
  69.3760       465
  69.3980       425
  69.4200       442
  69.4420       438
  69.4640       402
  69.4860       460
  69.5080       424
  69.5300       430
  69.5520       439
  69.5740       403
  69.5960       472
  69.6180       435
  69.6400       424
  69.6620       403
  69.6840       414
  69.7060       428
  69.7280       402
  69.7500       427
  69.7720       427
  69.7940       409
  69.8160       407
  69.8380       414
  69.8600       417
  69.8820       452
  69.9040       435
  69.9260       429
  69.9480       407
  69.9700       408
  69.9920       438
  70.0140       438
  70.0360       419
  70.0580       418
  70.0800       462
  70.1020       457
  70.1240       468
  70.1460       420
  70.1680       465
  70.1900       457
  70.2120       460
  70.2340       413
  70.2560       458
  70.2780       452
  70.3000       467
  70.3220       458
  70.3440       473
  70.3660       491
  70.3880       487
  70.4100       455
  70.4320       475
  70.4540       492
  70.4760       451
  70.4980       485
  70.5200       490
  70.5420       459
  70.5640       467
  70.5860       500
  70.6080       515
  70.6300       543
  70.6520       523
  70.6740       536
  70.6960       493
  70.7180       526
  70.7400       584
  70.7620       562
  70.7840       547
  70.8060       601
  70.8280       511
  70.8500       617
  70.8720       609
  70.8940       636
  70.9160       662
  70.9380       691
  70.9600       714
  70.9820       770
  71.0040       828
  71.0260       775
  71.0480       886
  71.0700       840
  71.0920       934
  71.1140       905
  71.1360       935
  71.1580       998
  71.1800      1047
  71.2020      1066
  71.2240      1100
  71.2460      1025
  71.2680      1048
  71.2900      1093
  71.3120      1095
  71.3340      1088
  71.3560       967
  71.3780       997
  71.4000      1008
  71.4220       995
  71.4440       903
  71.4660       817
  71.4880       845
  71.5100       795
  71.5320       815
  71.5540       745
  71.5760       728
  71.5980       630
  71.6200       643
  71.6420       629
  71.6640       584
  71.6860       626
  71.7080       548
  71.7300       601
  71.7520       529
  71.7740       540
  71.7960       514
  71.8180       527
  71.8400       483
  71.8620       515
  71.8840       456
  71.9060       494
  71.9280       480
  71.9500       446
  71.9720       496
  71.9940       468
  72.0160       466
  72.0380       453
  72.0600       404
  72.0820       452
  72.1040       477
  72.1260       405
  72.1480       464
  72.1700       447
  72.1920       464
  72.2140       434
  72.2360       469
  72.2580       430
  72.2800       442
  72.3020       453
  72.3240       454
  72.3460       415
  72.3680       458
  72.3900       445
  72.4120       438
  72.4340       445
  72.4560       418
  72.4780       414
  72.5000       467
  72.5220       450
  72.5440       463
  72.5660       422
  72.5880       451
  72.6100       446
  72.6320       462
  72.6540       430
  72.6760       443
  72.6980       421
  72.7200       418
  72.7420       417
  72.7640       450
  72.7860       444
  72.8080       423
  72.8300       436
  72.8520       385
  72.8740       478
  72.8960       422
  72.9180       463
  72.9400       426
  72.9620       439
  72.9840       437
  73.0060       392
  73.0280       432
  73.0500       408
  73.0720       407
  73.0940       446
  73.1160       440
  73.1380       423
  73.1600       450
  73.1820       403
  73.2040       418
  73.2260       401
  73.2480       454
  73.2700       425
  73.2920       411
  73.3140       428
  73.3360       391
  73.3580       402
  73.3800       416
  73.4020       396
  73.4240       419
  73.4460       409
  73.4680       420
  73.4900       419
  73.5120       433
  73.5340       437
  73.5560       420
  73.5780       416
  73.6000       413
  73.6220       461
  73.6440       397
  73.6660       418
  73.6880       390
  73.7100       444
  73.7320       425
  73.7540       397
  73.7760       428
  73.7980       432
  73.8200       417
  73.8420       419
  73.8640       439
  73.8860       410
  73.9080       440
  73.9300       445
  73.9520       420
  73.9740       426
  73.9960       408
  74.0180       437
  74.0400       374
  74.0620       420
  74.0840       415
  74.1060       388
  74.1280       430
  74.1500       424
  74.1720       403
  74.1940       418
  74.2160       464
  74.2380       421
  74.2600       402
  74.2820       425
  74.3040       435
  74.3260       414
  74.3480       439
  74.3700       394
  74.3920       418
  74.4140       417
  74.4360       394
  74.4580       400
  74.4800       432
  74.5020       399
  74.5240       423
  74.5460       445
  74.5680       418
  74.5900       444
  74.6120       433
  74.6340       428
  74.6560       464
  74.6780       415
  74.7000       414
  74.7220       428
  74.7440       411
  74.7660       406
  74.7880       430
  74.8100       424
  74.8320       414
  74.8540       418
  74.8760       397
  74.8980       432
  74.9200       400
  74.9420       384
  74.9640       415
  74.9860       399
  75.0080       422
  75.0300       391
  75.0520       455
  75.0740       421
  75.0960       446
  75.1180       406
  75.1400       424
  75.1620       459
  75.1840       415
  75.2060       437
  75.2280       406
  75.2500       413
  75.2720       393
  75.2940       435
  75.3160       384
  75.3380       431
  75.3600       409
  75.3820       400
  75.4040       470
  75.4260       420
  75.4480       453
  75.4700       435
  75.4920       420
  75.5140       400
  75.5360       423
  75.5580       410
  75.5800       443
  75.6020       376
  75.6240       417
  75.6460       429
  75.6680       446
  75.6900       398
  75.7120       408
  75.7340       430
  75.7560       428
  75.7780       417
  75.8000       427
  75.8220       411
  75.8440       400
  75.8660       398
  75.8880       422
  75.9100       420
  75.9320       396
  75.9540       388
  75.9760       420
  75.9980       416
  76.0200       444
  76.0420       430
  76.0640       492
  76.0860       469
  76.1080       455
  76.1300       429
  76.1520       403
  76.1740       474
  76.1960       460
  76.2180       433
  76.2400       446
  76.2620       438
  76.2840       423
  76.3060       428
  76.3280       435
  76.3500       425
  76.3720       434
  76.3940       399
  76.4160       436
  76.4380       408
  76.4600       394
  76.4820       442
  76.5040       407
  76.5260       437
  76.5480       426
  76.5700       416
  76.5920       441
  76.6140       405
  76.6360       423
  76.6580       442
  76.6800       450
  76.7020       428
  76.7240       418
  76.7460       452
  76.7680       427
  76.7900       411
  76.8120       415
  76.8340       392
  76.8560       424
  76.8780       412
  76.9000       440
  76.9220       416
  76.9440       432
  76.9660       414
  76.9880       417
  77.0100       467
  77.0320       462
  77.0540       449
  77.0760       418
  77.0980       448
  77.1200       428
  77.1420       421
  77.1640       477
  77.1860       422
  77.2080       443
  77.2300       457
  77.2520       410
  77.2740       386
  77.2960       452
  77.3180       458
  77.3400       441
  77.3620       450
  77.3840       446
  77.4060       408
  77.4280       428
  77.4500       426
  77.4720       432
  77.4940       389
  77.5160       484
  77.5380       454
  77.5600       413
  77.5820       398
  77.6040       478
  77.6260       453
  77.6480       430
  77.6700       426
  77.6920       463
  77.7140       457
  77.7360       435
  77.7580       444
  77.7800       437
  77.8020       411
  77.8240       421
  77.8460       409
  77.8680       400
  77.8900       398
  77.9120       434
  77.9340       431
  77.9560       414
  77.9780       416
  78.0000       420
  78.0220       422
  78.0440       466
  78.0660       421
  78.0880       395
  78.1100       440
  78.1320       456
  78.1540       444
  78.1760       427
  78.1980       455
  78.2200       418
  78.2420       424
  78.2640       417
  78.2860       410
  78.3080       433
  78.3300       442
  78.3520       412
  78.3740       455
  78.3960       438
  78.4180       435
  78.4400       401
  78.4620       435
  78.4840       418
  78.5060       431
  78.5280       466
  78.5500       411
  78.5720       450
  78.5940       449
  78.6160       411
  78.6380       419
  78.6600       413
  78.6820       416
  78.7040       463
  78.7260       417
  78.7480       414
  78.7700       406
  78.7920       420
  78.8140       426
  78.8360       441
  78.8580       407
  78.8800       446
  78.9020       413
  78.9240       421
  78.9460       404
  78.9680       442
  78.9900       461
  79.0120       416
  79.0340       420
  79.0560       418
  79.0780       396
  79.1000       456
  79.1220       430
  79.1440       424
  79.1660       399
  79.1880       402
  79.2100       422
  79.2320       422
  79.2540       434
  79.2760       431
  79.2980       426
  79.3200       430
  79.3420       428
  79.3640       409
  79.3860       407
  79.4080       399
  79.4300       400
  79.4520       424
  79.4740       432
  79.4960       416
  79.5180       415
  79.5400       395
  79.5620       397
  79.5840       416
  79.6060       411
  79.6280       463
  79.6500       435
  79.6720       395
  79.6940       394
  79.7160       407
  79.7380       408
  79.7600       407
  79.7820       435
  79.8040       423
  79.8260       466
  79.8480       465
  79.8700       417
  79.8920       448
  79.9140       428
  79.9360       472
  79.9580       428
  79.9800       435
  80.0020       416
  80.0240       451
  80.0460       421
  80.0680       397
  80.0900       432
  80.1120       394
  80.1340       456
  80.1560       395
  80.1780       444
  80.2000       410
  80.2220       447
  80.2440       476
  80.2660       411
  80.2880       422
  80.3100       416
  80.3320       412
  80.3540       417
  80.3760       447
  80.3980       455
  80.4200       440
  80.4420       443
  80.4640       408
  80.4860       392
  80.5080       400
  80.5300       411
  80.5520       435
  80.5740       441
  80.5960       443
  80.6180       421
  80.6400       402
  80.6620       471
  80.6840       427
  80.7060       404
  80.7280       417
  80.7500       435
  80.7720       455
  80.7940       423
  80.8160       420
  80.8380       441
  80.8600       436
  80.8820       432
  80.9040       409
  80.9260       398
  80.9480       453
  80.9700       421
  80.9920       410
  81.0140       417
  81.0360       413
  81.0580       406
  81.0800       431
  81.1020       412
  81.1240       443
  81.1460       424
  81.1680       442
  81.1900       425
  81.2120       465
  81.2340       410
  81.2560       420
  81.2780       405
  81.3000       445
  81.3220       404
  81.3440       425
  81.3660       401
  81.3880       456
  81.4100       413
  81.4320       410
  81.4540       441
  81.4760       429
  81.4980       443
  81.5200       436
  81.5420       439
  81.5640       431
  81.5860       442
  81.6080       426
  81.6300       438
  81.6520       434
  81.6740       411
  81.6960       450
  81.7180       458
  81.7400       428
  81.7620       380
  81.7840       427
  81.8060       473
  81.8280       418
  81.8500       404
  81.8720       447
  81.8940       445
  81.9160       430
  81.9380       446
  81.9600       450
  81.9820       439
  82.0040       434
  82.0260       451
  82.0480       411
  82.0700       402
  82.0920       424
  82.1140       443
  82.1360       426
  82.1580       412
  82.1800       400
  82.2020       437
  82.2240       440
  82.2460       426
  82.2680       437
  82.2900       435
  82.3120       448
  82.3340       422
  82.3560       423
  82.3780       458
  82.4000       457
  82.4220       472
  82.4440       429
  82.4660       381
  82.4880       434
  82.5100       447
  82.5320       410
  82.5540       465
  82.5760       422
  82.5980       443
  82.6200       416
  82.6420       427
  82.6640       429
  82.6860       408
  82.7080       442
  82.7300       421
  82.7520       433
  82.7740       411
  82.7960       430
  82.8180       472
  82.8400       400
  82.8620       434
  82.8840       454
  82.9060       419
  82.9280       387
  82.9500       445
  82.9720       424
  82.9940       388
  83.0160       432
  83.0380       460
  83.0600       442
  83.0820       454
  83.1040       408
  83.1260       427
  83.1480       421
  83.1700       404
  83.1920       448
  83.2140       441
  83.2360       441
  83.2580       435
  83.2800       427
  83.3020       466
  83.3240       408
  83.3460       418
  83.3680       441
  83.3900       457
  83.4120       446
  83.4340       442
  83.4560       435
  83.4780       457
  83.5000       433
  83.5220       406
  83.5440       447
  83.5660       431
  83.5880       410
  83.6100       450
  83.6320       411
  83.6540       432
  83.6760       448
  83.6980       453
  83.7200       400
  83.7420       442
  83.7640       444
  83.7860       457
  83.8080       446
  83.8300       433
  83.8520       476
  83.8740       426
  83.8960       440
  83.9180       425
  83.9400       455
  83.9620       397
  83.9840       416
  84.0060       470
  84.0280       416
  84.0500       448
  84.0720       415
  84.0940       426
  84.1160       465
  84.1380       467
  84.1600       436
  84.1820       448
  84.2040       419
  84.2260       451
  84.2480       429
  84.2700       500
  84.2920       435
  84.3140       432
  84.3360       475
  84.3580       425
  84.3800       395
  84.4020       460
  84.4240       452
  84.4460       453
  84.4680       445
  84.4900       426
  84.5120       434
  84.5340       418
  84.5560       487
  84.5780       437
  84.6000       447
  84.6220       466
  84.6440       458
  84.6660       449
  84.6880       452
  84.7100       445
  84.7320       445
  84.7540       485
  84.7760       480
  84.7980       489
  84.8200       467
  84.8420       451
  84.8640       486
  84.8860       499
  84.9080       500
  84.9300       464
  84.9520       488
  84.9740       475
  84.9960       490
  85.0180       499
  85.0400       508
  85.0620       482
  85.0840       511
  85.1060       516
  85.1280       535
  85.1500       515
  85.1720       531
  85.1940       525
  85.2160       544
  85.2380       517
  85.2600       538
  85.2820       568
  85.3040       548
  85.3260       547
  85.3480       582
  85.3700       614
  85.3920       622
  85.4140       609
  85.4360       604
  85.4580       594
  85.4800       634
  85.5020       641
  85.5240       649
  85.5460       709
  85.5680       731
  85.5900       694
  85.6120       726
  85.6340       772
  85.6560       700
  85.6780       780
  85.7000       779
  85.7220       850
  85.7440       814
  85.7660       865
  85.7880       810
  85.8100       907
  85.8320       926
  85.8540       982
  85.8760       964
  85.8980       973
  85.9200      1028
  85.9420       972
  85.9640      1076
  85.9860      1011
  86.0080      1071
  86.0300      1033
  86.0520      1055
  86.0740      1006
  86.0960      1028
  86.1180      1061
  86.1400      1028
  86.1620      1034
  86.1840      1056
  86.2060      1004
  86.2280       955
  86.2500       957
  86.2720       935
  86.2940       903
  86.3160       901
  86.3380       872
  86.3600       862
  86.3820       833
  86.4040       861
  86.4260       798
  86.4480       772
  86.4700       763
  86.4920       773
  86.5140       654
  86.5360       673
  86.5580       695
  86.5800       645
  86.6020       635
  86.6240       587
  86.6460       606
  86.6680       604
  86.6900       532
  86.7120       585
  86.7340       549
  86.7560       539
  86.7780       504
  86.8000       535
  86.8220       539
  86.8440       544
  86.8660       544
  86.8880       516
  86.9100       512
  86.9320       514
  86.9540       478
  86.9760       465
  86.9980       497
  87.0200       476
  87.0420       466
  87.0640       454
  87.0860       464
  87.1080       459
  87.1300       524
  87.1520       493
  87.1740       448
  87.1960       449
  87.2180       410
  87.2400       443
  87.2620       417
  87.2840       454
  87.3060       463
  87.3280       426
  87.3500       457
  87.3720       447
  87.3940       477
  87.4160       459
  87.4380       463
  87.4600       449
  87.4820       426
  87.5040       405
  87.5260       439
  87.5480       433
  87.5700       425
  87.5920       417
  87.6140       431
  87.6360       397
  87.6580       438
  87.6800       484
  87.7020       421
  87.7240       454
  87.7460       449
  87.7680       463
  87.7900       430
  87.8120       464
  87.8340       433
  87.8560       445
  87.8780       450
  87.9000       422
  87.9220       428
  87.9440       443
  87.9660       425
  87.9880       428
  88.0100       405
  88.0320       436
  88.0540       430
  88.0760       390
  88.0980       461
  88.1200       435
  88.1420       458
  88.1640       470
  88.1860       441
  88.2080       430
  88.2300       422
  88.2520       431
  88.2740       400
  88.2960       469
  88.3180       458
  88.3400       420
  88.3620       443
  88.3840       455
  88.4060       489
  88.4280       416
  88.4500       437
  88.4720       438
  88.4940       409
  88.5160       384
  88.5380       403
  88.5600       425
  88.5820       400
  88.6040       426
  88.6260       419
  88.6480       440
  88.6700       430
  88.6920       416
  88.7140       421
  88.7360       387
  88.7580       431
  88.7800       434
  88.8020       404
  88.8240       430
  88.8460       421
  88.8680       446
  88.8900       394
  88.9120       403
  88.9340       413
  88.9560       430
  88.9780       465
  89.0000       429
  89.0220       434
  89.0440       472
  89.0660       410
  89.0880       416
  89.1100       419
  89.1320       424
  89.1540       446
  89.1760       398
  89.1980       436
  89.2200       420
  89.2420       429
  89.2640       440
  89.2860       454
  89.3080       429
  89.3300       439
  89.3520       456
  89.3740       448
  89.3960       410
  89.4180       423
  89.4400       449
  89.4620       425
  89.4840       436
  89.5060       414
  89.5280       491
  89.5500       415
  89.5720       441
  89.5940       407
  89.6160       437
  89.6380       393
  89.6600       426
  89.6820       445
  89.7040       424
  89.7260       407
  89.7480       460
  89.7700       459
  89.7920       404
  89.8140       408
  89.8360       419
  89.8580       371
  89.8800       407
  89.9020       423
  89.9240       415
  89.9460       443
  89.9680       440
  89.9900       453
  90.0120       444
  90.0340       463
  90.0560       458
  90.0780       420
  90.1000       457
  90.1220       492
  90.1440       473
  90.1660       482
  90.1880       466
  90.2100       442
  90.2320       474
  90.2540       438
  90.2760       456
  90.2980       477
  90.3200       446
  90.3420       463
  90.3640       471
  90.3860       473
  90.4080       474
  90.4300       454
  90.4520       512
  90.4740       488
  90.4960       523
  90.5180       511
  90.5400       511
  90.5620       508
  90.5840       497
  90.6060       578
  90.6280       516
  90.6500       559
  90.6720       513
  90.6940       580
  90.7160       531
  90.7380       594
  90.7600       583
  90.7820       605
  90.8040       554
  90.8260       626
  90.8480       590
  90.8700       636
  90.8920       623
  90.9140       652
  90.9360       624
  90.9580       593
  90.9800       644
  91.0020       597
  91.0240       584
  91.0460       605
  91.0680       594
  91.0900       618
  91.1120       543
  91.1340       593
  91.1560       557
  91.1780       566
  91.2000       550
  91.2220       580
  91.2440       549
  91.2660       531
  91.2880       552
  91.3100       523
  91.3320       497
  91.3540       497
  91.3760       490
  91.3980       505
  91.4200       542
  91.4420       514
  91.4640       465
  91.4860       444
  91.5080       442
  91.5300       456
  91.5520       456
  91.5740       466
  91.5960       456
  91.6180       473
  91.6400       437
  91.6620       461
  91.6840       444
  91.7060       452
  91.7280       455
  91.7500       431
  91.7720       421
  91.7940       439
  91.8160       437
  91.8380       462
  91.8600       446
  91.8820       428
  91.9040       427
  91.9260       449
  91.9480       438
  91.9700       418
  91.9920       459
  92.0140       431
  92.0360       419
  92.0580       422
  92.0800       437
  92.1020       415
  92.1240       421
  92.1460       445
  92.1680       412
  92.1900       458
  92.2120       436
  92.2340       455
  92.2560       427
  92.2780       397
  92.3000       421
  92.3220       425
  92.3440       454
  92.3660       433
  92.3880       439
  92.4100       403
  92.4320       383
  92.4540       410
  92.4760       421
  92.4980       404
  92.5200       422
  92.5420       410
  92.5640       464
  92.5860       412
  92.6080       427
  92.6300       436
  92.6520       440
  92.6740       434
  92.6960       452
  92.7180       425
  92.7400       421
  92.7620       446
  92.7840       418
  92.8060       399
  92.8280       415
  92.8500       434
  92.8720       436
  92.8940       426
  92.9160       398
  92.9380       389
  92.9600       401
  92.9820       468
  93.0040       425
  93.0260       430
  93.0480       415
  93.0700       424
  93.0920       436
  93.1140       442
  93.1360       438
  93.1580       450
  93.1800       421
  93.2020       453
  93.2240       409
  93.2460       433
  93.2680       416
  93.2900       418
  93.3120       442
  93.3340       424
  93.3560       410
  93.3780       453
  93.4000       446
  93.4220       416
  93.4440       425
  93.4660       430
  93.4880       443
  93.5100       428
  93.5320       415
  93.5540       444
  93.5760       402
  93.5980       407
  93.6200       428
  93.6420       412
  93.6640       420
  93.6860       421
  93.7080       384
  93.7300       399
  93.7520       396
  93.7740       425
  93.7960       398
  93.8180       461
  93.8400       434
  93.8620       425
  93.8840       474
  93.9060       431
  93.9280       456
  93.9500       391
  93.9720       387
  93.9940       479
  94.0160       406
  94.0380       458
  94.0600       439
  94.0820       406
  94.1040       453
  94.1260       431
  94.1480       441
  94.1700       440
  94.1920       419
  94.2140       400
  94.2360       458
  94.2580       421
  94.2800       413
  94.3020       429
  94.3240       400
  94.3460       445
  94.3680       417
  94.3900       443
  94.4120       431
  94.4340       433
  94.4560       432
  94.4780       426
  94.5000       432
  94.5220       389
  94.5440       447
  94.5660       450
  94.5880       430
  94.6100       436
  94.6320       405
  94.6540       439
  94.6760       418
  94.6980       418
  94.7200       445
  94.7420       417
  94.7640       413
  94.7860       443
  94.8080       415
  94.8300       420
  94.8520       404
  94.8740       430
  94.8960       423
  94.9180       409
  94.9400       445
  94.9620       408
  94.9840       395
  95.0060       420
  95.0280       400
  95.0500       436
  95.0720       443
  95.0940       394
  95.1160       447
  95.1380       422
  95.1600       445
  95.1820       413
  95.2040       414
  95.2260       462
  95.2480       428
  95.2700       439
  95.2920       398
  95.3140       437
  95.3360       420
  95.3580       433
  95.3800       410
  95.4020       405
  95.4240       405
  95.4460       450
  95.4680       426
  95.4900       412
  95.5120       422
  95.5340       458
  95.5560       453
  95.5780       403
  95.6000       458
  95.6220       430
  95.6440       458
  95.6660       417
  95.6880       437
  95.7100       433
  95.7320       429
  95.7540       455
  95.7760       393
  95.7980       430
  95.8200       439
  95.8420       436
  95.8640       396
  95.8860       418
  95.9080       434
  95.9300       476
  95.9520       403
  95.9740       450
  95.9960       420
  96.0180       418
  96.0400       453
  96.0620       424
  96.0840       443
  96.1060       413
  96.1280       411
  96.1500       404
  96.1720       429
  96.1940       458
  96.2160       407
  96.2380       432
  96.2600       426
  96.2820       423
  96.3040       436
  96.3260       466
  96.3480       433
  96.3700       436
  96.3920       404
  96.4140       420
  96.4360       415
  96.4580       425
  96.4800       432
  96.5020       379
  96.5240       423
  96.5460       455
  96.5680       429
  96.5900       405
  96.6120       413
  96.6340       417
  96.6560       389
  96.6780       467
  96.7000       438
  96.7220       438
  96.7440       432
  96.7660       410
  96.7880       422
  96.8100       429
  96.8320       417
  96.8540       432
  96.8760       435
  96.8980       405
  96.9200       493
  96.9420       459
  96.9640       431
  96.9860       463
  97.0080       413
  97.0300       415
  97.0520       390
  97.0740       406
  97.0960       438
  97.1180       447
  97.1400       438
  97.1620       446
  97.1840       414
  97.2060       471
  97.2280       451
  97.2500       440
  97.2720       476
  97.2940       416
  97.3160       455
  97.3380       447
  97.3600       402
  97.3820       419
  97.4040       394
  97.4260       428
  97.4480       409
  97.4700       412
  97.4920       443
  97.5140       428
  97.5360       431
  97.5580       422
  97.5800       459
  97.6020       424
  97.6240       399
  97.6460       421
  97.6680       409
  97.6900       434
  97.7120       429
  97.7340       430
  97.7560       404
  97.7780       415
  97.8000       421
  97.8220       441
  97.8440       413
  97.8660       437
  97.8880       431
  97.9100       426
  97.9320       444
  97.9540       439
  97.9760       420
  97.9980       388
  98.0200       403
  98.0420       418
  98.0640       431
  98.0860       398
  98.1080       384
  98.1300       454
  98.1520       444
  98.1740       449
  98.1960       430
  98.2180       406
  98.2400       369
  98.2620       414
  98.2840       437
  98.3060       466
  98.3280       431
  98.3500       400
  98.3720       425
  98.3940       457
  98.4160       444
  98.4380       435
  98.4600       437
  98.4820       428
  98.5040       391
  98.5260       405
  98.5480       481
  98.5700       401
  98.5920       384
  98.6140       412
  98.6360       414
  98.6580       449
  98.6800       431
  98.7020       411
  98.7240       446
  98.7460       447
  98.7680       436
  98.7900       433
  98.8120       463
  98.8340       395
  98.8560       411
  98.8780       423
  98.9000       430
  98.9220       421
  98.9440       439
  98.9660       387
  98.9880       397
  99.0100       430
  99.0320       429
  99.0540       428
  99.0760       417
  99.0980       421
  99.1200       416
  99.1420       435
  99.1640       438
  99.1860       420
  99.2080       413
  99.2300       396
  99.2520       427
  99.2740       440
  99.2960       436
  99.3180       432
  99.3400       430
  99.3620       424
  99.3840       466
  99.4060       378
  99.4280       410
  99.4500       460
  99.4720       417
  99.4940       393
  99.5160       443
  99.5380       440
  99.5600       419
  99.5820       404
  99.6040       413
  99.6260       437
  99.6480       413
  99.6700       432
  99.6920       402
  99.7140       422
  99.7360       437
  99.7580       463
  99.7800       423
  99.8020       427
  99.8240       448
  99.8460       418
  99.8680       397
  99.8900       420
  99.9120       468
  99.9340       435
  99.9560       410
  99.9780       404
 100.0000       433
 100.0220       406
 100.0440       396
 100.0660       429
 100.0880       428
 100.1100       377
 100.1320       402
 100.1540       421
 100.1760       435
 100.1980       415
 100.2200       439
 100.2420       415
 100.2640       430
 100.2860       408
 100.3080       425
 100.3300       446
 100.3520       413
 100.3740       444
 100.3960       450
 100.4180       414
 100.4400       413
 100.4620       439
 100.4840       442
 100.5060       444
 100.5280       419
 100.5500       441
 100.5720       421
 100.5940       465
 100.6160       429
 100.6380       449
 100.6600       430
 100.6820       418
 100.7040       420
 100.7260       445
 100.7480       419
 100.7700       405
 100.7920       440
 100.8140       421
 100.8360       470
 100.8580       411
 100.8800       413
 100.9020       438
 100.9240       416
 100.9460       429
 100.9680       421
 100.9900       393
 101.0120       443
 101.0340       453
 101.0560       443
 101.0780       427
 101.1000       441
 101.1220       436
 101.1440       422
 101.1660       398
 101.1880       417
 101.2100       423
 101.2320       421
 101.2540       450
 101.2760       402
 101.2980       442
 101.3200       422
 101.3420       440
 101.3640       414
 101.3860       432
 101.4080       437
 101.4300       438
 101.4520       431
 101.4740       422
 101.4960       473
 101.5180       415
 101.5400       404
 101.5620       419
 101.5840       432
 101.6060       455
 101.6280       492
 101.6500       443
 101.6720       419
 101.6940       443
 101.7160       452
 101.7380       407
 101.7600       446
 101.7820       409
 101.8040       439
 101.8260       410
 101.8480       414
 101.8700       438
 101.8920       437
 101.9140       414
 101.9360       440
 101.9580       443
 101.9800       407
 102.0020       451
 102.0240       445
 102.0460       456
 102.0680       446
 102.0900       410
 102.1120       444
 102.1340       461
 102.1560       443
 102.1780       428
 102.2000       451
 102.2220       466
 102.2440       410
 102.2660       402
 102.2880       452
 102.3100       440
 102.3320       440
 102.3540       482
 102.3760       455
 102.3980       417
 102.4200       414
 102.4420       407
 102.4640       453
 102.4860       397
 102.5080       452
 102.5300       429
 102.5520       445
 102.5740       417
 102.5960       455
 102.6180       425
 102.6400       444
 102.6620       427
 102.6840       441
 102.7060       391
 102.7280       435
 102.7500       431
 102.7720       439
 102.7940       437
 102.8160       431
 102.8380       410
 102.8600       423
 102.8820       432
 102.9040       453
 102.9260       436
 102.9480       428
 102.9700       412
 102.9920       391
 103.0140       429
 103.0360       414
 103.0580       425
 103.0800       370
 103.1020       474
 103.1240       437
 103.1460       433
 103.1680       445
 103.1900       453
 103.2120       421
 103.2340       444
 103.2560       407
 103.2780       461
 103.3000       409
 103.3220       377
 103.3440       430
 103.3660       423
 103.3880       427
 103.4100       396
 103.4320       425
 103.4540       427
 103.4760       420
 103.4980       387
 103.5200       433
 103.5420       441
 103.5640       432
 103.5860       463
 103.6080       440
 103.6300       417
 103.6520       435
 103.6740       441
 103.6960       419
 103.7180       434
 103.7400       426
 103.7620       433
 103.7840       445
 103.8060       442
 103.8280       446
 103.8500       404
 103.8720       437
 103.8940       462
 103.9160       434
 103.9380       400
 103.9600       408
 103.9820       397
 104.0040       424
 104.0260       471
 104.0480       421
 104.0700       435
 104.0920       454
 104.1140       412
 104.1360       448
 104.1580       436
 104.1800       437
 104.2020       396
 104.2240       410
 104.2460       464
 104.2680       456
 104.2900       413
 104.3120       407
 104.3340       425
 104.3560       417
 104.3780       440
 104.4000       415
 104.4220       453
 104.4440       481
 104.4660       442
 104.4880       434
 104.5100       442
 104.5320       425
 104.5540       401
 104.5760       437
 104.5980       439
 104.6200       439
 104.6420       372
 104.6640       451
 104.6860       416
 104.7080       410
 104.7300       421
 104.7520       468
 104.7740       425
 104.7960       423
 104.8180       479
 104.8400       404
 104.8620       438
 104.8840       460
 104.9060       432
 104.9280       432
 104.9500       413
 104.9720       410
 104.9940       452
 105.0160       466
 105.0380       417
 105.0600       438
 105.0820       437
 105.1040       411
 105.1260       477
 105.1480       418
 105.1700       484
 105.1920       423
 105.2140       446
 105.2360       471
 105.2580       426
 105.2800       414
 105.3020       438
 105.3240       421
 105.3460       428
 105.3680       433
 105.3900       424
 105.4120       447
 105.4340       410
 105.4560       427
 105.4780       429
 105.5000       432
 105.5220       427
 105.5440       468
 105.5660       395
 105.5880       463
 105.6100       435
 105.6320       446
 105.6540       430
 105.6760       426
 105.6980       440
 105.7200       450
 105.7420       406
 105.7640       395
 105.7860       446
 105.8080       438
 105.8300       409
 105.8520       413
 105.8740       431
 105.8960       447
 105.9180       432
 105.9400       442
 105.9620       432
 105.9840       441
 106.0060       431
 106.0280       405
 106.0500       429
 106.0720       465
 106.0940       464
 106.1160       428
 106.1380       416
 106.1600       404
 106.1820       409
 106.2040       452
 106.2260       460
 106.2480       461
 106.2700       473
 106.2920       426
 106.3140       448
 106.3360       462
 106.3580       427
 106.3800       464
 106.4020       453
 106.4240       428
 106.4460       441
 106.4680       492
 106.4900       469
 106.5120       421
 106.5340       410
 106.5560       468
 106.5780       423
 106.6000       458
 106.6220       422
 106.6440       433
 106.6660       448
 106.6880       434
 106.7100       445
 106.7320       413
 106.7540       457
 106.7760       438
 106.7980       438
 106.8200       420
 106.8420       441
 106.8640       426
 106.8860       419
 106.9080       443
 106.9300       431
 106.9520       461
 106.9740       451
 106.9960       436
 107.0180       404
 107.0400       439
 107.0620       445
 107.0840       434
 107.1060       442
 107.1280       461
 107.1500       457
 107.1720       450
 107.1940       458
 107.2160       430
 107.2380       447
 107.2600       432
 107.2820       413
 107.3040       432
 107.3260       455
 107.3480       420
 107.3700       457
 107.3920       426
 107.4140       449
 107.4360       451
 107.4580       433
 107.4800       438
 107.5020       396
 107.5240       420
 107.5460       452
 107.5680       438
 107.5900       446
 107.6120       465
 107.6340       438
 107.6560       451
 107.6780       441
 107.7000       435
 107.7220       417
 107.7440       405
 107.7660       411
 107.7880       453
 107.8100       456
 107.8320       479
 107.8540       441
 107.8760       448
 107.8980       440
 107.9200       470
 107.9420       443
 107.9640       424
 107.9860       459
 108.0080       460
 108.0300       406
 108.0520       428
 108.0740       412
 108.0960       458
 108.1180       442
 108.1400       468
 108.1620       436
 108.1840       403
 108.2060       485
 108.2280       425
 108.2500       417
 108.2720       448
 108.2940       485
 108.3160       479
 108.3380       443
 108.3600       419
 108.3820       461
 108.4040       473
 108.4260       460
 108.4480       420
 108.4700       468
 108.4920       427
 108.5140       462
 108.5360       441
 108.5580       423
 108.5800       464
 108.6020       477
 108.6240       426
 108.6460       424
 108.6680       487
 108.6900       480
 108.7120       471
 108.7340       457
 108.7560       447
 108.7780       448
 108.8000       419
 108.8220       442
 108.8440       482
 108.8660       423
 108.8880       447
 108.9100       460
 108.9320       470
 108.9540       423
 108.9760       417
 108.9980       463
 109.0200       441
 109.0420       462
 109.0640       454
 109.0860       455
 109.1080       451
 109.1300       455
 109.1520       469
 109.1740       474
 109.1960       468
 109.2180       448
 109.2400       469
 109.2620       446
 109.2840       480
 109.3060       474
 109.3280       479
 109.3500       468
 109.3720       473
 109.3940       482
 109.4160       448
 109.4380       419
 109.4600       477
 109.4820       483
 109.5040       455
 109.5260       491
 109.5480       490
 109.5700       455
 109.5920       503
 109.6140       471
 109.6360       477
 109.6580       438
 109.6800       434
 109.7020       473
 109.7240       489
 109.7460       463
 109.7680       470
 109.7900       499
 109.8120       469
 109.8340       480
 109.8560       472
 109.8780       496
 109.9000       451
 109.9220       500
 109.9440       504
 109.9660       492
 109.9880       531
 110.0100       496
 110.0320       537
 110.0540       525
 110.0760       541
 110.0980       515
 110.1200       538
 110.1420       498
 110.1640       524
 110.1860       523
 110.2080       555
 110.2300       519
 110.2520       539
 110.2740       518
 110.2960       529
 110.3180       566
 110.3400       549
 110.3620       556
 110.3840       584
 110.4060       541
 110.4280       556
 110.4500       509
 110.4720       573
 110.4940       528
 110.5160       525
 110.5380       523
 110.5600       540
 110.5820       553
 110.6040       556
 110.6260       557
 110.6480       552
 110.6700       520
 110.6920       527
 110.7140       526
 110.7360       535
 110.7580       512
 110.7800       572
 110.8020       546
 110.8240       522
 110.8460       566
 110.8680       567
 110.8900       587
 110.9120       531
 110.9340       523
 110.9560       495
 110.9780       528
 111.0000       518
 111.0220       495
 111.0440       515
 111.0660       532
 111.0880       508
 111.1100       559
 111.1320       506
 111.1540       538
 111.1760       515
 111.1980       486
 111.2200       516
 111.2420       504
 111.2640       512
 111.2860       548
 111.3080       486
 111.3300       490
 111.3520       520
 111.3740       483
 111.3960       473
 111.4180       489
 111.4400       503
 111.4620       463
 111.4840       502
 111.5060       475
 111.5280       420
 111.5500       471
 111.5720       469
 111.5940       480
 111.6160       430
 111.6380       469
 111.6600       494
 111.6820       518
 111.7040       496
 111.7260       456
 111.7480       529
 111.7700       450
 111.7920       452
 111.8140       459
 111.8360       500
 111.8580       482
 111.8800       490
 111.9020       516
 111.9240       480
 111.9460       425
 111.9680       481
 111.9900       474
 112.0120       467
 112.0340       438
 112.0560       427
 112.0780       438
 112.1000       450
 112.1220       479
 112.1440       423
 112.1660       449
 112.1880       453
 112.2100       434
 112.2320       436
 112.2540       453
 112.2760       480
 112.2980       479
 112.3200       508
 112.3420       446
 112.3640       420
 112.3860       446
 112.4080       451
 112.4300       484
 112.4520       470
 112.4740       413
 112.4960       496
 112.5180       457
 112.5400       450
 112.5620       445
 112.5840       476
 112.6060       456
 112.6280       455
 112.6500       441
 112.6720       453
 112.6940       419
 112.7160       441
 112.7380       472
 112.7600       476
 112.7820       447
 112.8040       467
 112.8260       436
 112.8480       458
 112.8700       450
 112.8920       452
 112.9140       470
 112.9360       475
 112.9580       449
 112.9800       477
 113.0020       439
 113.0240       439
 113.0460       445
 113.0680       444
 113.0900       454
 113.1120       460
 113.1340       434
 113.1560       440
 113.1780       430
 113.2000       415
 113.2220       450
 113.2440       428
 113.2660       441
 113.2880       422
 113.3100       440
 113.3320       446
 113.3540       448
 113.3760       473
 113.3980       441
 113.4200       447
 113.4420       425
 113.4640       423
 113.4860       467
 113.5080       492
 113.5300       448
 113.5520       438
 113.5740       412
 113.5960       446
 113.6180       472
 113.6400       455
 113.6620       425
 113.6840       440
 113.7060       436
 113.7280       437
 113.7500       473
 113.7720       454
 113.7940       450
 113.8160       472
 113.8380       445
 113.8600       454
 113.8820       448
 113.9040       474
 113.9260       477
 113.9480       441
 113.9700       436
 113.9920       462
 114.0140       466
 114.0360       421
 114.0580       489
 114.0800       424
 114.1020       479
 114.1240       471
 114.1460       479
 114.1680       424
 114.1900       468
 114.2120       462
 114.2340       420
 114.2560       456
 114.2780       435
 114.3000       497
 114.3220       469
 114.3440       464
 114.3660       456
 114.3880       446
 114.4100       479
 114.4320       453
 114.4540       474
 114.4760       460
 114.4980       480
 114.5200       434
 114.5420       476
 114.5640       401
 114.5860       448
 114.6080       445
 114.6300       470
 114.6520       435
 114.6740       454
 114.6960       415
 114.7180       450
 114.7400       423
 114.7620       460
 114.7840       477
 114.8060       437
 114.8280       457
 114.8500       440
 114.8720       462
 114.8940       433
 114.9160       458
 114.9380       430
 114.9600       440
 114.9820       427
 115.0040       457
 115.0260       465
 115.0480       437
 115.0700       477
 115.0920       441
 115.1140       467
 115.1360       396
 115.1580       444
 115.1800       462
 115.2020       431
 115.2240       467
 115.2460       462
 115.2680       437
 115.2900       464
 115.3120       406
 115.3340       452
 115.3560       461
 115.3780       476
 115.4000       441
 115.4220       450
 115.4440       461
 115.4660       458
 115.4880       457
 115.5100       453
 115.5320       497
 115.5540       434
 115.5760       505
 115.5980       449
 115.6200       463
 115.6420       457
 115.6640       454
 115.6860       454
 115.7080       447
 115.7300       465
 115.7520       457
 115.7740       471
 115.7960       432
 115.8180       457
 115.8400       438
 115.8620       447
 115.8840       405
 115.9060       460
 115.9280       421
 115.9500       464
 115.9720       447
 115.9940       474
 116.0160       430
 116.0380       434
 116.0600       430
 116.0820       456
 116.1040       429
 116.1260       440
 116.1480       460
 116.1700       444
 116.1920       450
 116.2140       459
 116.2360       451
 116.2580       440
 116.2800       425
 116.3020       442
 116.3240       459
 116.3460       442
 116.3680       445
 116.3900       484
 116.4120       416
 116.4340       432
 116.4560       443
 116.4780       453
 116.5000       451
 116.5220       465
 116.5440       420
 116.5660       435
 116.5880       474
 116.6100       447
 116.6320       432
 116.6540       462
 116.6760       445
 116.6980       464
 116.7200       452
 116.7420       423
 116.7640       442
 116.7860       449
 116.8080       424
 116.8300       444
 116.8520       425
 116.8740       492
 116.8960       459
 116.9180       421
 116.9400       462
 116.9620       481
 116.9840       468
 117.0060       431
 117.0280       442
 117.0500       446
 117.0720       433
 117.0940       459
 117.1160       439
 117.1380       446
 117.1600       451
 117.1820       432
 117.2040       488
 117.2260       471
 117.2480       469
 117.2700       451
 117.2920       419
 117.3140       432
 117.3360       431
 117.3580       446
 117.3800       438
 117.4020       465
 117.4240       445
 117.4460       449
 117.4680       466
 117.4900       460
 117.5120       459
 117.5340       436
 117.5560       430
 117.5780       470
 117.6000       461
 117.6220       456
 117.6440       466
 117.6660       461
 117.6880       454
 117.7100       447
 117.7320       470
 117.7540       437
 117.7760       491
 117.7980       463
 117.8200       478
 117.8420       456
 117.8640       485
 117.8860       490
 117.9080       442
 117.9300       470
 117.9520       443
 117.9740       463
 117.9960       444
 118.0180       429
 118.0400       471
 118.0620       440
 118.0840       506
 118.1060       504
 118.1280       431
 118.1500       477
 118.1720       450
 118.1940       459
 118.2160       442
 118.2380       488
 118.2600       448
 118.2820       455
 118.3040       457
 118.3260       494
 118.3480       476
 118.3700       437
 118.3920       437
 118.4140       473
 118.4360       446
 118.4580       450
 118.4800       464
 118.5020       431
 118.5240       454
 118.5460       460
 118.5680       445
 118.5900       434
 118.6120       449
 118.6340       408
 118.6560       474
 118.6780       455
 118.7000       434
 118.7220       441
 118.7440       477
 118.7660       449
 118.7880       445
 118.8100       502
 118.8320       450
 118.8540       472
 118.8760       443
 118.8980       442
 118.9200       448
 118.9420       407
 118.9640       446
 118.9860       471
 119.0080       455
 119.0300       436
 119.0520       488
 119.0740       501
 119.0960       473
 119.1180       449
 119.1400       474
 119.1620       437
 119.1840       446
 119.2060       449
 119.2280       486
 119.2500       446
 119.2720       462
 119.2940       427
 119.3160       470
 119.3380       449
 119.3600       455
 119.3820       506
 119.4040       496
 119.4260       510
 119.4480       400
 119.4700       463
 119.4920       429
 119.5140       453
 119.5360       452
 119.5580       453
 119.5800       453
 119.6020       468
 119.6240       449
 119.6460       440
 119.6680       451
 119.6900       468
 119.7120       445
 119.7340       445
 119.7560       459
 119.7780       471
 119.8000       480
 119.8220       482
 119.8440       499
 119.8660       462
 119.8880       452
 119.9100       494
 119.9320       486
 119.9540       458
 119.9760       445
 119.9980       471
 120.0200       475
 120.0420       459
 120.0640       468
 120.0860       459
 120.1080       435
 120.1300       496
 120.1520       446
 120.1740       463
 120.1960       490
 120.2180       470
 120.2400       461
 120.2620       433
 120.2840       474
 120.3060       470
 120.3280       455
 120.3500       430
 120.3720       464
 120.3940       489
 120.4160       479
 120.4380       458
 120.4600       480
 120.4820       499
 120.5040       460
 120.5260       469
 120.5480       475
 120.5700       441
 120.5920       469
 120.6140       432
 120.6360       429
 120.6580       472
 120.6800       460
 120.7020       447
 120.7240       495
 120.7460       497
 120.7680       446
 120.7900       465
 120.8120       459
 120.8340       467
 120.8560       472
 120.8780       445
 120.9000       432
 120.9220       412
 120.9440       474
 120.9660       488
 120.9880       461
 121.0100       439
 121.0320       451
 121.0540       487
 121.0760       458
 121.0980       457
 121.1200       450
 121.1420       452
 121.1640       476
 121.1860       465
 121.2080       467
 121.2300       502
 121.2520       460
 121.2740       452
 121.2960       454
 121.3180       451
 121.3400       470
 121.3620       458
 121.3840       468
 121.4060       480
 121.4280       484
 121.4500       427
 121.4720       469
 121.4940       502
 121.5160       457
 121.5380       478
 121.5600       462
 121.5820       434
 121.6040       448
 121.6260       462
 121.6480       467
 121.6700       460
 121.6920       455
 121.7140       470
 121.7360       441
 121.7580       484
 121.7800       499
 121.8020       438
 121.8240       496
 121.8460       456
 121.8680       456
 121.8900       448
 121.9120       461
 121.9340       461
 121.9560       459
 121.9780       474
 122.0000       465
