; C:\Data\Froehlich\Praktikum\2016-02-09_ignatiev\probe2.raw(Diffrac Plus V1.01 file) converted by XCH V1.0
_FILEVERSION=2
_SAMPLE='Probe2'
_SITE='II. Physikalisches Institut'
_ATTACHMENTS_CODE=0
_GONIOMETER_RADIUS=200.500000
_FIXED_DIVSLIT=2.000000
_FIXED_SAMPLESLIT=1.000000
_FIXED_DETSLIT=0.200000
_MONOCHROMATOR=0
; None
_THIN_FILM='N'
_BETA_FILTER='Y'
_FIXED_ANTISLIT=2.000000
_ANALYZER_CODE=0
; None
_DATEMEASURED='09-Feb-2016 20:56:04'
_WL_UNIT='A'
_WL1=1.540590
_WL2=1.544430
_WL3=1.392230
_WLRATIO=0.520000
_ANODE='Cu'
; (Data for Range number 1)
_DRIVE='COUPLED'
_STEPTIME=2.000000
_STEPSIZE=0.022000
_STEPMODE='C'
_START=12.000000
_THETA=6.000000
_2THETA=12.000000
_KHI=0.000000
_PHI=0.000000
_X=0.000000
_Y=0.000000
_Z=0.000000
_DIVERGENCE=0.000000
_ANTISCATTER=0.000000
_DETECTOR=1
; S.C.
_HV=1000.000000
_GAIN=80.000000
_LLD=0.550000
_ULD=1.310000
_DETECTORSLIT='unkn'
_AUX1=0.000000
_AUX2=0.000000
_AUX3=0.000000
_TIMESTARTED=13.000000
_ROTATION_SPEED=120.000000
_TEMP_RATE=-1.000000
_TEMP_DELAY=-1.000000
_KV=40
_MA=40
_RANGE_WL=1.540590
_3DPLANE=0
_2THETACOUNTS
  12.0000       233
  12.0220       219
  12.0440       232
  12.0660       219
  12.0880       239
  12.1100       248
  12.1320       227
  12.1540       234
  12.1760       223
  12.1980       232
  12.2200       211
  12.2420       220
  12.2640       234
  12.2860       226
  12.3080       206
  12.3300       277
  12.3520       222
  12.3740       242
  12.3960       223
  12.4180       219
  12.4400       214
  12.4620       259
  12.4840       249
  12.5060       232
  12.5280       225
  12.5500       245
  12.5720       246
  12.5940       236
  12.6160       234
  12.6380       215
  12.6600       224
  12.6820       262
  12.7040       240
  12.7260       217
  12.7480       211
  12.7700       218
  12.7920       214
  12.8140       247
  12.8360       209
  12.8580       246
  12.8800       216
  12.9020       254
  12.9240       239
  12.9460       227
  12.9680       206
  12.9900       215
  13.0120       266
  13.0340       219
  13.0560       215
  13.0780       226
  13.1000       209
  13.1220       232
  13.1440       213
  13.1660       262
  13.1880       234
  13.2100       234
  13.2320       237
  13.2540       224
  13.2760       241
  13.2980       246
  13.3200       211
  13.3420       249
  13.3640       221
  13.3860       241
  13.4080       254
  13.4300       221
  13.4520       229
  13.4740       241
  13.4960       226
  13.5180       239
  13.5400       225
  13.5620       244
  13.5840       233
  13.6060       221
  13.6280       217
  13.6500       241
  13.6720       243
  13.6940       247
  13.7160       235
  13.7380       250
  13.7600       249
  13.7820       251
  13.8040       221
  13.8260       230
  13.8480       255
  13.8700       254
  13.8920       240
  13.9140       246
  13.9360       230
  13.9580       216
  13.9800       213
  14.0020       254
  14.0240       264
  14.0460       267
  14.0680       266
  14.0900       262
  14.1120       216
  14.1340       243
  14.1560       229
  14.1780       244
  14.2000       222
  14.2220       244
  14.2440       262
  14.2660       251
  14.2880       264
  14.3100       234
  14.3320       247
  14.3540       261
  14.3760       253
  14.3980       235
  14.4200       287
  14.4420       228
  14.4640       243
  14.4860       251
  14.5080       239
  14.5300       253
  14.5520       278
  14.5740       244
  14.5960       250
  14.6180       230
  14.6400       243
  14.6620       258
  14.6840       254
  14.7060       262
  14.7280       266
  14.7500       240
  14.7720       253
  14.7940       254
  14.8160       240
  14.8380       252
  14.8600       258
  14.8820       252
  14.9040       260
  14.9260       251
  14.9480       270
  14.9700       254
  14.9920       244
  15.0140       267
  15.0360       261
  15.0580       270
  15.0800       233
  15.1020       252
  15.1240       255
  15.1460       276
  15.1680       252
  15.1900       246
  15.2120       256
  15.2340       261
  15.2560       243
  15.2780       239
  15.3000       255
  15.3220       266
  15.3440       250
  15.3660       249
  15.3880       266
  15.4100       210
  15.4320       289
  15.4540       245
  15.4760       259
  15.4980       236
  15.5200       243
  15.5420       251
  15.5640       251
  15.5860       285
  15.6080       263
  15.6300       256
  15.6520       267
  15.6740       268
  15.6960       276
  15.7180       264
  15.7400       234
  15.7620       232
  15.7840       243
  15.8060       255
  15.8280       266
  15.8500       292
  15.8720       281
  15.8940       261
  15.9160       267
  15.9380       260
  15.9600       254
  15.9820       275
  16.0040       240
  16.0260       292
  16.0480       275
  16.0700       252
  16.0920       253
  16.1140       275
  16.1360       260
  16.1580       273
  16.1800       279
  16.2020       287
  16.2240       257
  16.2460       261
  16.2680       248
  16.2900       241
  16.3120       267
  16.3340       262
  16.3560       255
  16.3780       267
  16.4000       245
  16.4220       264
  16.4440       268
  16.4660       298
  16.4880       270
  16.5100       289
  16.5320       236
  16.5540       272
  16.5760       259
  16.5980       264
  16.6200       281
  16.6420       251
  16.6640       259
  16.6860       268
  16.7080       250
  16.7300       281
  16.7520       266
  16.7740       262
  16.7960       277
  16.8180       255
  16.8400       248
  16.8620       300
  16.8840       318
  16.9060       267
  16.9280       297
  16.9500       267
  16.9720       268
  16.9940       275
  17.0160       307
  17.0380       236
  17.0600       263
  17.0820       258
  17.1040       287
  17.1260       253
  17.1480       302
  17.1700       282
  17.1920       292
  17.2140       270
  17.2360       288
  17.2580       306
  17.2800       283
  17.3020       263
  17.3240       297
  17.3460       277
  17.3680       287
  17.3900       287
  17.4120       294
  17.4340       285
  17.4560       273
  17.4780       268
  17.5000       287
  17.5220       270
  17.5440       270
  17.5660       282
  17.5880       294
  17.6100       276
  17.6320       246
  17.6540       262
  17.6760       249
  17.6980       257
  17.7200       307
  17.7420       287
  17.7640       281
  17.7860       307
  17.8080       341
  17.8300       261
  17.8520       307
  17.8740       305
  17.8960       303
  17.9180       308
  17.9400       272
  17.9620       289
  17.9840       306
  18.0060       274
  18.0280       296
  18.0500       284
  18.0720       290
  18.0940       291
  18.1160       298
  18.1380       305
  18.1600       307
  18.1820       273
  18.2040       312
  18.2260       270
  18.2480       263
  18.2700       295
  18.2920       309
  18.3140       276
  18.3360       270
  18.3580       297
  18.3800       309
  18.4020       312
  18.4240       287
  18.4460       335
  18.4680       301
  18.4900       311
  18.5120       292
  18.5340       325
  18.5560       297
  18.5780       303
  18.6000       304
  18.6220       300
  18.6440       301
  18.6660       277
  18.6880       274
  18.7100       311
  18.7320       318
  18.7540       294
  18.7760       325
  18.7980       294
  18.8200       306
  18.8420       304
  18.8640       327
  18.8860       311
  18.9080       318
  18.9300       322
  18.9520       296
  18.9740       313
  18.9960       336
  19.0180       329
  19.0400       305
  19.0620       330
  19.0840       311
  19.1060       307
  19.1280       323
  19.1500       294
  19.1720       308
  19.1940       315
  19.2160       300
  19.2380       303
  19.2600       320
  19.2820       288
  19.3040       322
  19.3260       339
  19.3480       304
  19.3700       310
  19.3920       325
  19.4140       293
  19.4360       282
  19.4580       279
  19.4800       309
  19.5020       298
  19.5240       312
  19.5460       293
  19.5680       330
  19.5900       353
  19.6120       322
  19.6340       395
  19.6560       317
  19.6780       321
  19.7000       286
  19.7220       336
  19.7440       339
  19.7660       319
  19.7880       306
  19.8100       344
  19.8320       299
  19.8540       302
  19.8760       285
  19.8980       336
  19.9200       297
  19.9420       338
  19.9640       349
  19.9860       351
  20.0080       306
  20.0300       324
  20.0520       327
  20.0740       337
  20.0960       270
  20.1180       325
  20.1400       320
  20.1620       328
  20.1840       337
  20.2060       332
  20.2280       306
  20.2500       321
  20.2720       351
  20.2940       302
  20.3160       312
  20.3380       352
  20.3600       324
  20.3820       354
  20.4040       306
  20.4260       330
  20.4480       312
  20.4700       337
  20.4920       367
  20.5140       343
  20.5360       361
  20.5580       361
  20.5800       341
  20.6020       336
  20.6240       347
  20.6460       371
  20.6680       355
  20.6900       347
  20.7120       361
  20.7340       339
  20.7560       368
  20.7780       340
  20.8000       358
  20.8220       345
  20.8440       324
  20.8660       390
  20.8880       330
  20.9100       360
  20.9320       337
  20.9540       335
  20.9760       365
  20.9980       336
  21.0200       366
  21.0420       374
  21.0640       373
  21.0860       363
  21.1080       368
  21.1300       366
  21.1520       349
  21.1740       344
  21.1960       353
  21.2180       371
  21.2400       383
  21.2620       351
  21.2840       358
  21.3060       370
  21.3280       341
  21.3500       372
  21.3720       341
  21.3940       334
  21.4160       368
  21.4380       354
  21.4600       364
  21.4820       338
  21.5040       364
  21.5260       357
  21.5480       347
  21.5700       348
  21.5920       379
  21.6140       380
  21.6360       377
  21.6580       326
  21.6800       362
  21.7020       375
  21.7240       343
  21.7460       355
  21.7680       381
  21.7900       366
  21.8120       374
  21.8340       360
  21.8560       360
  21.8780       355
  21.9000       383
  21.9220       352
  21.9440       403
  21.9660       329
  21.9880       366
  22.0100       413
  22.0320       366
  22.0540       343
  22.0760       375
  22.0980       364
  22.1200       381
  22.1420       356
  22.1640       389
  22.1860       375
  22.2080       362
  22.2300       407
  22.2520       397
  22.2740       465
  22.2960       365
  22.3180       371
  22.3400       364
  22.3620       412
  22.3840       380
  22.4060       349
  22.4280       389
  22.4500       385
  22.4720       386
  22.4940       381
  22.5160       369
  22.5380       402
  22.5600       404
  22.5820       395
  22.6040       357
  22.6260       423
  22.6480       402
  22.6700       417
  22.6920       416
  22.7140       406
  22.7360       377
  22.7580       369
  22.7800       419
  22.8020       424
  22.8240       388
  22.8460       430
  22.8680       379
  22.8900       383
  22.9120       393
  22.9340       365
  22.9560       394
  22.9780       461
  23.0000       441
  23.0220       456
  23.0440       437
  23.0660       443
  23.0880       442
  23.1100       433
  23.1320       450
  23.1540       434
  23.1760       443
  23.1980       454
  23.2200       405
  23.2420       442
  23.2640       497
  23.2860       456
  23.3080       512
  23.3300       480
  23.3520       490
  23.3740       494
  23.3960       528
  23.4180       509
  23.4400       530
  23.4620       492
  23.4840       516
  23.5060       530
  23.5280       521
  23.5500       509
  23.5720       559
  23.5940       563
  23.6160       522
  23.6380       567
  23.6600       529
  23.6820       531
  23.7040       511
  23.7260       483
  23.7480       485
  23.7700       513
  23.7920       510
  23.8140       537
  23.8360       492
  23.8580       484
  23.8800       478
  23.9020       458
  23.9240       479
  23.9460       467
  23.9680       466
  23.9900       461
  24.0120       458
  24.0340       458
  24.0560       435
  24.0780       425
  24.1000       466
  24.1220       433
  24.1440       466
  24.1660       440
  24.1880       422
  24.2100       440
  24.2320       437
  24.2540       411
  24.2760       443
  24.2980       418
  24.3200       441
  24.3420       431
  24.3640       421
  24.3860       417
  24.4080       451
  24.4300       420
  24.4520       444
  24.4740       398
  24.4960       416
  24.5180       419
  24.5400       407
  24.5620       386
  24.5840       423
  24.6060       439
  24.6280       396
  24.6500       396
  24.6720       435
  24.6940       414
  24.7160       409
  24.7380       397
  24.7600       431
  24.7820       397
  24.8040       407
  24.8260       412
  24.8480       464
  24.8700       411
  24.8920       424
  24.9140       400
  24.9360       436
  24.9580       376
  24.9800       428
  25.0020       415
  25.0240       422
  25.0460       412
  25.0680       399
  25.0900       393
  25.1120       436
  25.1340       375
  25.1560       385
  25.1780       394
  25.2000       379
  25.2220       380
  25.2440       388
  25.2660       421
  25.2880       397
  25.3100       381
  25.3320       392
  25.3540       387
  25.3760       379
  25.3980       384
  25.4200       425
  25.4420       419
  25.4640       380
  25.4860       401
  25.5080       410
  25.5300       403
  25.5520       393
  25.5740       403
  25.5960       406
  25.6180       420
  25.6400       395
  25.6620       400
  25.6840       393
  25.7060       397
  25.7280       426
  25.7500       356
  25.7720       406
  25.7940       370
  25.8160       401
  25.8380       370
  25.8600       435
  25.8820       399
  25.9040       360
  25.9260       381
  25.9480       405
  25.9700       380
  25.9920       373
  26.0140       389
  26.0360       437
  26.0580       400
  26.0800       370
  26.1020       413
  26.1240       408
  26.1460       432
  26.1680       337
  26.1900       364
  26.2120       376
  26.2340       356
  26.2560       403
  26.2780       395
  26.3000       385
  26.3220       402
  26.3440       382
  26.3660       391
  26.3880       424
  26.4100       345
  26.4320       390
  26.4540       387
  26.4760       421
  26.4980       409
  26.5200       397
  26.5420       376
  26.5640       365
  26.5860       404
  26.6080       437
  26.6300       381
  26.6520       383
  26.6740       354
  26.6960       365
  26.7180       412
  26.7400       405
  26.7620       364
  26.7840       415
  26.8060       392
  26.8280       365
  26.8500       399
  26.8720       397
  26.8940       401
  26.9160       376
  26.9380       373
  26.9600       405
  26.9820       373
  27.0040       391
  27.0260       411
  27.0480       394
  27.0700       380
  27.0920       378
  27.1140       384
  27.1360       410
  27.1580       366
  27.1800       424
  27.2020       362
  27.2240       388
  27.2460       398
  27.2680       397
  27.2900       374
  27.3120       395
  27.3340       370
  27.3560       426
  27.3780       420
  27.4000       408
  27.4220       406
  27.4440       371
  27.4660       374
  27.4880       359
  27.5100       367
  27.5320       355
  27.5540       405
  27.5760       379
  27.5980       419
  27.6200       399
  27.6420       424
  27.6640       375
  27.6860       387
  27.7080       370
  27.7300       412
  27.7520       365
  27.7740       401
  27.7960       372
  27.8180       402
  27.8400       377
  27.8620       410
  27.8840       415
  27.9060       391
  27.9280       366
  27.9500       428
  27.9720       380
  27.9940       394
  28.0160       412
  28.0380       371
  28.0600       397
  28.0820       363
  28.1040       406
  28.1260       399
  28.1480       383
  28.1700       398
  28.1920       409
  28.2140       373
  28.2360       395
  28.2580       403
  28.2800       350
  28.3020       386
  28.3240       385
  28.3460       379
  28.3680       400
  28.3900       397
  28.4120       392
  28.4340       328
  28.4560       383
  28.4780       384
  28.5000       401
  28.5220       364
  28.5440       376
  28.5660       405
  28.5880       362
  28.6100       375
  28.6320       376
  28.6540       400
  28.6760       370
  28.6980       387
  28.7200       386
  28.7420       369
  28.7640       378
  28.7860       398
  28.8080       375
  28.8300       356
  28.8520       398
  28.8740       384
  28.8960       356
  28.9180       417
  28.9400       385
  28.9620       381
  28.9840       367
  29.0060       414
  29.0280       400
  29.0500       352
  29.0720       343
  29.0940       408
  29.1160       426
  29.1380       369
  29.1600       373
  29.1820       359
  29.2040       382
  29.2260       345
  29.2480       393
  29.2700       397
  29.2920       414
  29.3140       355
  29.3360       373
  29.3580       379
  29.3800       345
  29.4020       376
  29.4240       423
  29.4460       371
  29.4680       380
  29.4900       366
  29.5120       366
  29.5340       383
  29.5560       385
  29.5780       401
  29.6000       395
  29.6220       370
  29.6440       381
  29.6660       390
  29.6880       408
  29.7100       411
  29.7320       370
  29.7540       400
  29.7760       388
  29.7980       391
  29.8200       382
  29.8420       394
  29.8640       397
  29.8860       380
  29.9080       393
  29.9300       363
  29.9520       391
  29.9740       353
  29.9960       403
  30.0180       381
  30.0400       395
  30.0620       335
  30.0840       402
  30.1060       339
  30.1280       383
  30.1500       389
  30.1720       382
  30.1940       394
  30.2160       393
  30.2380       397
  30.2600       374
  30.2820       358
  30.3040       391
  30.3260       401
  30.3480       368
  30.3700       408
  30.3920       361
  30.4140       391
  30.4360       394
  30.4580       402
  30.4800       359
  30.5020       378
  30.5240       365
  30.5460       379
  30.5680       400
  30.5900       361
  30.6120       365
  30.6340       348
  30.6560       391
  30.6780       397
  30.7000       393
  30.7220       374
  30.7440       372
  30.7660       381
  30.7880       377
  30.8100       376
  30.8320       378
  30.8540       425
  30.8760       376
  30.8980       366
  30.9200       351
  30.9420       363
  30.9640       353
  30.9860       371
  31.0080       422
  31.0300       366
  31.0520       361
  31.0740       381
  31.0960       398
  31.1180       393
  31.1400       383
  31.1620       379
  31.1840       358
  31.2060       390
  31.2280       410
  31.2500       351
  31.2720       360
  31.2940       388
  31.3160       355
  31.3380       388
  31.3600       404
  31.3820       382
  31.4040       370
  31.4260       359
  31.4480       408
  31.4700       366
  31.4920       397
  31.5140       382
  31.5360       383
  31.5580       378
  31.5800       371
  31.6020       408
  31.6240       377
  31.6460       368
  31.6680       358
  31.6900       382
  31.7120       377
  31.7340       380
  31.7560       370
  31.7780       388
  31.8000       385
  31.8220       342
  31.8440       357
  31.8660       369
  31.8880       389
  31.9100       431
  31.9320       404
  31.9540       422
  31.9760       384
  31.9980       398
  32.0200       361
  32.0420       374
  32.0640       402
  32.0860       408
  32.1080       387
  32.1300       361
  32.1520       366
  32.1740       379
  32.1960       380
  32.2180       386
  32.2400       371
  32.2620       386
  32.2840       385
  32.3060       373
  32.3280       386
  32.3500       406
  32.3720       377
  32.3940       368
  32.4160       396
  32.4380       394
  32.4600       364
  32.4820       393
  32.5040       370
  32.5260       415
  32.5480       381
  32.5700       377
  32.5920       414
  32.6140       385
  32.6360       368
  32.6580       354
  32.6800       409
  32.7020       356
  32.7240       398
  32.7460       394
  32.7680       398
  32.7900       386
  32.8120       380
  32.8340       398
  32.8560       369
  32.8780       394
  32.9000       378
  32.9220       413
  32.9440       386
  32.9660       465
  32.9880       395
  33.0100       375
  33.0320       391
  33.0540       394
  33.0760       380
  33.0980       425
  33.1200       418
  33.1420       421
  33.1640       401
  33.1860       410
  33.2080       449
  33.2300       399
  33.2520       398
  33.2740       447
  33.2960       426
  33.3180       442
  33.3400       433
  33.3620       433
  33.3840       475
  33.4060       434
  33.4280       448
  33.4500       413
  33.4720       454
  33.4940       436
  33.5160       430
  33.5380       428
  33.5600       433
  33.5820       475
  33.6040       427
  33.6260       430
  33.6480       470
  33.6700       479
  33.6920       475
  33.7140       428
  33.7360       468
  33.7580       462
  33.7800       467
  33.8020       437
  33.8240       530
  33.8460       456
  33.8680       443
  33.8900       422
  33.9120       425
  33.9340       443
  33.9560       419
  33.9780       444
  34.0000       428
  34.0220       453
  34.0440       431
  34.0660       431
  34.0880       421
  34.1100       432
  34.1320       417
  34.1540       392
  34.1760       426
  34.1980       435
  34.2200       408
  34.2420       417
  34.2640       393
  34.2860       438
  34.3080       399
  34.3300       388
  34.3520       412
  34.3740       429
  34.3960       387
  34.4180       375
  34.4400       375
  34.4620       414
  34.4840       386
  34.5060       376
  34.5280       385
  34.5500       413
  34.5720       399
  34.5940       405
  34.6160       380
  34.6380       393
  34.6600       358
  34.6820       358
  34.7040       343
  34.7260       380
  34.7480       355
  34.7700       389
  34.7920       346
  34.8140       348
  34.8360       415
  34.8580       370
  34.8800       352
  34.9020       430
  34.9240       371
  34.9460       399
  34.9680       384
  34.9900       393
  35.0120       397
  35.0340       319
  35.0560       368
  35.0780       380
  35.1000       372
  35.1220       366
  35.1440       340
  35.1660       358
  35.1880       397
  35.2100       375
  35.2320       371
  35.2540       377
  35.2760       379
  35.2980       367
  35.3200       381
  35.3420       402
  35.3640       379
  35.3860       372
  35.4080       338
  35.4300       355
  35.4520       368
  35.4740       363
  35.4960       382
  35.5180       399
  35.5400       383
  35.5620       369
  35.5840       386
  35.6060       391
  35.6280       392
  35.6500       379
  35.6720       357
  35.6940       370
  35.7160       357
  35.7380       369
  35.7600       367
  35.7820       352
  35.8040       401
  35.8260       352
  35.8480       397
  35.8700       358
  35.8920       368
  35.9140       375
  35.9360       361
  35.9580       395
  35.9800       349
  36.0020       414
  36.0240       349
  36.0460       367
  36.0680       351
  36.0900       322
  36.1120       392
  36.1340       357
  36.1560       413
  36.1780       365
  36.2000       388
  36.2220       334
  36.2440       370
  36.2660       394
  36.2880       334
  36.3100       328
  36.3320       360
  36.3540       382
  36.3760       363
  36.3980       364
  36.4200       391
  36.4420       399
  36.4640       346
  36.4860       389
  36.5080       364
  36.5300       344
  36.5520       379
  36.5740       344
  36.5960       365
  36.6180       333
  36.6400       398
  36.6620       400
  36.6840       381
  36.7060       349
  36.7280       330
  36.7500       352
  36.7720       326
  36.7940       339
  36.8160       374
  36.8380       389
  36.8600       318
  36.8820       332
  36.9040       356
  36.9260       338
  36.9480       386
  36.9700       371
  36.9920       383
  37.0140       386
  37.0360       358
  37.0580       357
  37.0800       372
  37.1020       361
  37.1240       414
  37.1460       410
  37.1680       388
  37.1900       392
  37.2120       421
  37.2340       389
  37.2560       379
  37.2780       406
  37.3000       419
  37.3220       389
  37.3440       439
  37.3660       420
  37.3880       468
  37.4100       432
  37.4320       443
  37.4540       418
  37.4760       461
  37.4980       447
  37.5200       401
  37.5420       420
  37.5640       376
  37.5860       403
  37.6080       381
  37.6300       415
  37.6520       402
  37.6740       414
  37.6960       405
  37.7180       425
  37.7400       406
  37.7620       432
  37.7840       445
  37.8060       420
  37.8280       455
  37.8500       510
  37.8720       466
  37.8940       508
  37.9160       495
  37.9380       478
  37.9600       474
  37.9820       527
  38.0040       498
  38.0260       487
  38.0480       513
  38.0700       477
  38.0920       462
  38.1140       427
  38.1360       437
  38.1580       393
  38.1800       408
  38.2020       429
  38.2240       422
  38.2460       430
  38.2680       389
  38.2900       376
  38.3120       425
  38.3340       437
  38.3560       374
  38.3780       398
  38.4000       387
  38.4220       337
  38.4440       383
  38.4660       369
  38.4880       393
  38.5100       376
  38.5320       384
  38.5540       424
  38.5760       357
  38.5980       383
  38.6200       371
  38.6420       357
  38.6640       388
  38.6860       397
  38.7080       384
  38.7300       392
  38.7520       382
  38.7740       311
  38.7960       376
  38.8180       386
  38.8400       382
  38.8620       370
  38.8840       376
  38.9060       381
  38.9280       370
  38.9500       378
  38.9720       388
  38.9940       389
  39.0160       369
  39.0380       369
  39.0600       370
  39.0820       377
  39.1040       385
  39.1260       344
  39.1480       344
  39.1700       385
  39.1920       382
  39.2140       383
  39.2360       369
  39.2580       369
  39.2800       376
  39.3020       379
  39.3240       398
  39.3460       376
  39.3680       354
  39.3900       372
  39.4120       378
  39.4340       380
  39.4560       402
  39.4780       359
  39.5000       409
  39.5220       359
  39.5440       376
  39.5660       399
  39.5880       392
  39.6100       362
  39.6320       383
  39.6540       380
  39.6760       399
  39.6980       424
  39.7200       421
  39.7420       383
  39.7640       393
  39.7860       396
  39.8080       428
  39.8300       395
  39.8520       387
  39.8740       403
  39.8960       416
  39.9180       408
  39.9400       407
  39.9620       418
  39.9840       410
  40.0060       410
  40.0280       444
  40.0500       386
  40.0720       441
  40.0940       408
  40.1160       455
  40.1380       419
  40.1600       414
  40.1820       433
  40.2040       434
  40.2260       427
  40.2480       419
  40.2700       429
  40.2920       436
  40.3140       446
  40.3360       467
  40.3580       415
  40.3800       432
  40.4020       443
  40.4240       462
  40.4460       435
  40.4680       432
  40.4900       466
  40.5120       464
  40.5340       430
  40.5560       437
  40.5780       444
  40.6000       438
  40.6220       450
  40.6440       488
  40.6660       462
  40.6880       464
  40.7100       478
  40.7320       460
  40.7540       452
  40.7760       516
  40.7980       516
  40.8200       491
  40.8420       485
  40.8640       510
  40.8860       498
  40.9080       554
  40.9300       559
  40.9520       570
  40.9740       552
  40.9960       677
  41.0180       645
  41.0400       698
  41.0620       664
  41.0840       765
  41.1060       749
  41.1280       784
  41.1500       877
  41.1720       981
  41.1940       956
  41.2160      1098
  41.2380      1202
  41.2600      1332
  41.2820      1438
  41.3040      1546
  41.3260      1761
  41.3480      1919
  41.3700      2059
  41.3920      2401
  41.4140      2521
  41.4360      2856
  41.4580      3186
  41.4800      3340
  41.5020      3505
  41.5240      3839
  41.5460      3946
  41.5680      3996
  41.5900      4163
  41.6120      3858
  41.6340      3782
  41.6560      3529
  41.6780      3262
  41.7000      3023
  41.7220      2561
  41.7440      2263
  41.7660      2002
  41.7880      1824
  41.8100      1537
  41.8320      1394
  41.8540      1276
  41.8760      1098
  41.8980      1016
  41.9200       971
  41.9420       826
  41.9640       803
  41.9860       729
  42.0080       708
  42.0300       621
  42.0520       616
  42.0740       582
  42.0960       593
  42.1180       532
  42.1400       528
  42.1620       514
  42.1840       471
  42.2060       538
  42.2280       474
  42.2500       470
  42.2720       471
  42.2940       437
  42.3160       443
  42.3380       439
  42.3600       479
  42.3820       440
  42.4040       455
  42.4260       425
  42.4480       443
  42.4700       449
  42.4920       450
  42.5140       408
  42.5360       397
  42.5580       405
  42.5800       397
  42.6020       426
  42.6240       400
  42.6460       463
  42.6680       408
  42.6900       389
  42.7120       413
  42.7340       395
  42.7560       420
  42.7780       437
  42.8000       423
  42.8220       417
  42.8440       423
  42.8660       416
  42.8880       403
  42.9100       449
  42.9320       412
  42.9540       393
  42.9760       442
  42.9980       403
  43.0200       419
  43.0420       411
  43.0640       423
  43.0860       409
  43.1080       404
  43.1300       419
  43.1520       451
  43.1740       432
  43.1960       416
  43.2180       405
  43.2400       425
  43.2620       417
  43.2840       392
  43.3060       418
  43.3280       432
  43.3500       449
  43.3720       441
  43.3940       393
  43.4160       478
  43.4380       432
  43.4600       449
  43.4820       434
  43.5040       425
  43.5260       415
  43.5480       402
  43.5700       405
  43.5920       422
  43.6140       417
  43.6360       418
  43.6580       409
  43.6800       386
  43.7020       387
  43.7240       398
  43.7460       418
  43.7680       416
  43.7900       419
  43.8120       418
  43.8340       389
  43.8560       432
  43.8780       378
  43.9000       405
  43.9220       427
  43.9440       428
  43.9660       396
  43.9880       384
  44.0100       391
  44.0320       434
  44.0540       387
  44.0760       410
  44.0980       425
  44.1200       423
  44.1420       422
  44.1640       397
  44.1860       389
  44.2080       401
  44.2300       405
  44.2520       418
  44.2740       449
  44.2960       391
  44.3180       383
  44.3400       406
  44.3620       373
  44.3840       357
  44.4060       365
  44.4280       391
  44.4500       396
  44.4720       391
  44.4940       370
  44.5160       390
  44.5380       427
  44.5600       380
  44.5820       355
  44.6040       377
  44.6260       419
  44.6480       399
  44.6700       394
  44.6920       391
  44.7140       388
  44.7360       402
  44.7580       360
  44.7800       377
  44.8020       383
  44.8240       377
  44.8460       338
  44.8680       392
  44.8900       383
  44.9120       412
  44.9340       364
  44.9560       360
  44.9780       384
  45.0000       387
  45.0220       404
  45.0440       389
  45.0660       368
  45.0880       386
  45.1100       408
  45.1320       359
  45.1540       375
  45.1760       356
  45.1980       449
  45.2200       387
  45.2420       391
  45.2640       391
  45.2860       359
  45.3080       339
  45.3300       391
  45.3520       390
  45.3740       380
  45.3960       386
  45.4180       408
  45.4400       398
  45.4620       407
  45.4840       382
  45.5060       397
  45.5280       385
  45.5500       370
  45.5720       406
  45.5940       431
  45.6160       381
  45.6380       391
  45.6600       391
  45.6820       420
  45.7040       385
  45.7260       385
  45.7480       381
  45.7700       404
  45.7920       428
  45.8140       381
  45.8360       396
  45.8580       403
  45.8800       432
  45.9020       395
  45.9240       420
  45.9460       406
  45.9680       381
  45.9900       382
  46.0120       454
  46.0340       391
  46.0560       369
  46.0780       393
  46.1000       392
  46.1220       391
  46.1440       430
  46.1660       403
  46.1880       403
  46.2100       426
  46.2320       417
  46.2540       391
  46.2760       420
  46.2980       373
  46.3200       373
  46.3420       387
  46.3640       405
  46.3860       387
  46.4080       407
  46.4300       400
  46.4520       423
  46.4740       378
  46.4960       397
  46.5180       413
  46.5400       366
  46.5620       476
  46.5840       468
  46.6060       443
  46.6280       466
  46.6500       413
  46.6720       425
  46.6940       427
  46.7160       408
  46.7380       417
  46.7600       479
  46.7820       446
  46.8040       394
  46.8260       405
  46.8480       409
  46.8700       422
  46.8920       449
  46.9140       406
  46.9360       450
  46.9580       391
  46.9800       463
  47.0020       446
  47.0240       427
  47.0460       415
  47.0680       405
  47.0900       448
  47.1120       429
  47.1340       451
  47.1560       461
  47.1780       448
  47.2000       482
  47.2220       429
  47.2440       468
  47.2660       470
  47.2880       512
  47.3100       466
  47.3320       491
  47.3540       469
  47.3760       463
  47.3980       500
  47.4200       529
  47.4420       544
  47.4640       485
  47.4860       504
  47.5080       523
  47.5300       570
  47.5520       562
  47.5740       535
  47.5960       581
  47.6180       596
  47.6400       606
  47.6620       642
  47.6840       647
  47.7060       640
  47.7280       719
  47.7500       739
  47.7720       750
  47.7940       770
  47.8160       758
  47.8380       835
  47.8600       898
  47.8820       886
  47.9040       984
  47.9260      1064
  47.9480      1065
  47.9700      1203
  47.9920      1228
  48.0140      1232
  48.0360      1417
  48.0580      1477
  48.0800      1500
  48.1020      1669
  48.1240      1765
  48.1460      1801
  48.1680      1938
  48.1900      2077
  48.2120      2190
  48.2340      2328
  48.2560      2418
  48.2780      2663
  48.3000      2545
  48.3220      2642
  48.3440      2602
  48.3660      2589
  48.3880      2645
  48.4100      2606
  48.4320      2634
  48.4540      2558
  48.4760      2488
  48.4980      2388
  48.5200      2280
  48.5420      2072
  48.5640      1970
  48.5860      1939
  48.6080      1756
  48.6300      1624
  48.6520      1545
  48.6740      1446
  48.6960      1403
  48.7180      1217
  48.7400      1173
  48.7620      1100
  48.7840      1015
  48.8060       958
  48.8280       890
  48.8500       835
  48.8720       831
  48.8940       769
  48.9160       748
  48.9380       731
  48.9600       692
  48.9820       633
  49.0040       594
  49.0260       555
  49.0480       549
  49.0700       584
  49.0920       555
  49.1140       514
  49.1360       531
  49.1580       538
  49.1800       506
  49.2020       462
  49.2240       481
  49.2460       466
  49.2680       496
  49.2900       444
  49.3120       442
  49.3340       453
  49.3560       441
  49.3780       453
  49.4000       437
  49.4220       466
  49.4440       464
  49.4660       449
  49.4880       436
  49.5100       427
  49.5320       465
  49.5540       426
  49.5760       402
  49.5980       437
  49.6200       412
  49.6420       402
  49.6640       419
  49.6860       402
  49.7080       449
  49.7300       415
  49.7520       451
  49.7740       415
  49.7960       408
  49.8180       407
  49.8400       404
  49.8620       421
  49.8840       410
  49.9060       428
  49.9280       405
  49.9500       428
  49.9720       366
  49.9940       422
  50.0160       385
  50.0380       370
  50.0600       424
  50.0820       401
  50.1040       384
  50.1260       391
  50.1480       385
  50.1700       408
  50.1920       433
  50.2140       357
  50.2360       373
  50.2580       418
  50.2800       391
  50.3020       414
  50.3240       379
  50.3460       388
  50.3680       406
  50.3900       415
  50.4120       401
  50.4340       380
  50.4560       386
  50.4780       355
  50.5000       379
  50.5220       368
  50.5440       370
  50.5660       408
  50.5880       363
  50.6100       378
  50.6320       404
  50.6540       402
  50.6760       370
  50.6980       370
  50.7200       419
  50.7420       386
  50.7640       384
  50.7860       458
  50.8080       405
  50.8300       407
  50.8520       381
  50.8740       385
  50.8960       390
  50.9180       382
  50.9400       351
  50.9620       401
  50.9840       398
  51.0060       405
  51.0280       416
  51.0500       383
  51.0720       405
  51.0940       387
  51.1160       431
  51.1380       403
  51.1600       381
  51.1820       415
  51.2040       365
  51.2260       377
  51.2480       353
  51.2700       394
  51.2920       401
  51.3140       382
  51.3360       387
  51.3580       384
  51.3800       412
  51.4020       383
  51.4240       391
  51.4460       370
  51.4680       390
  51.4900       385
  51.5120       381
  51.5340       383
  51.5560       386
  51.5780       360
  51.6000       361
  51.6220       362
  51.6440       394
  51.6660       393
  51.6880       400
  51.7100       363
  51.7320       394
  51.7540       392
  51.7760       373
  51.7980       387
  51.8200       382
  51.8420       373
  51.8640       385
  51.8860       371
  51.9080       393
  51.9300       356
  51.9520       408
  51.9740       386
  51.9960       408
  52.0180       421
  52.0400       388
  52.0620       364
  52.0840       381
  52.1060       381
  52.1280       405
  52.1500       388
  52.1720       424
  52.1940       370
  52.2160       424
  52.2380       387
  52.2600       398
  52.2820       376
  52.3040       401
  52.3260       383
  52.3480       372
  52.3700       373
  52.3920       394
  52.4140       403
  52.4360       377
  52.4580       401
  52.4800       406
  52.5020       397
  52.5240       409
  52.5460       411
  52.5680       392
  52.5900       401
  52.6120       434
  52.6340       394
  52.6560       353
  52.6780       394
  52.7000       404
  52.7220       394
  52.7440       399
  52.7660       368
  52.7880       372
  52.8100       421
  52.8320       427
  52.8540       425
  52.8760       411
  52.8980       409
  52.9200       405
  52.9420       373
  52.9640       389
  52.9860       425
  53.0080       404
  53.0300       400
  53.0520       420
  53.0740       425
  53.0960       395
  53.1180       402
  53.1400       418
  53.1620       402
  53.1840       395
  53.2060       386
  53.2280       421
  53.2500       378
  53.2720       394
  53.2940       397
  53.3160       420
  53.3380       382
  53.3600       404
  53.3820       406
  53.4040       417
  53.4260       400
  53.4480       417
  53.4700       435
  53.4920       394
  53.5140       369
  53.5360       408
  53.5580       394
  53.5800       384
  53.6020       406
  53.6240       408
  53.6460       429
  53.6680       397
  53.6900       400
  53.7120       398
  53.7340       430
  53.7560       426
  53.7780       425
  53.8000       451
  53.8220       423
  53.8440       411
  53.8660       398
  53.8880       375
  53.9100       394
  53.9320       451
  53.9540       450
  53.9760       430
  53.9980       382
  54.0200       450
  54.0420       425
  54.0640       432
  54.0860       426
  54.1080       417
  54.1300       446
  54.1520       442
  54.1740       412
  54.1960       424
  54.2180       462
  54.2400       428
  54.2620       438
  54.2840       445
  54.3060       405
  54.3280       472
  54.3500       422
  54.3720       424
  54.3940       456
  54.4160       475
  54.4380       457
  54.4600       455
  54.4820       491
  54.5040       489
  54.5260       510
  54.5480       478
  54.5700       522
  54.5920       516
  54.6140       456
  54.6360       487
  54.6580       481
  54.6800       484
  54.7020       519
  54.7240       483
  54.7460       518
  54.7680       508
  54.7900       463
  54.8120       464
  54.8340       439
  54.8560       496
  54.8780       470
  54.9000       434
  54.9220       450
  54.9440       474
  54.9660       485
  54.9880       415
  55.0100       437
  55.0320       417
  55.0540       391
  55.0760       451
  55.0980       466
  55.1200       438
  55.1420       438
  55.1640       444
  55.1860       400
  55.2080       409
  55.2300       433
  55.2520       396
  55.2740       418
  55.2960       389
  55.3180       437
  55.3400       401
  55.3620       412
  55.3840       449
  55.4060       413
  55.4280       419
  55.4500       371
  55.4720       394
  55.4940       414
  55.5160       409
  55.5380       395
  55.5600       387
  55.5820       422
  55.6040       380
  55.6260       407
  55.6480       383
  55.6700       401
  55.6920       423
  55.7140       368
  55.7360       425
  55.7580       396
  55.7800       379
  55.8020       376
  55.8240       397
  55.8460       405
  55.8680       381
  55.8900       402
  55.9120       416
  55.9340       407
  55.9560       411
  55.9780       391
  56.0000       389
  56.0220       400
  56.0440       422
  56.0660       406
  56.0880       391
  56.1100       352
  56.1320       417
  56.1540       375
  56.1760       411
  56.1980       423
  56.2200       386
  56.2420       409
  56.2640       436
  56.2860       370
  56.3080       383
  56.3300       386
  56.3520       403
  56.3740       394
  56.3960       376
  56.4180       406
  56.4400       366
  56.4620       411
  56.4840       409
  56.5060       395
  56.5280       374
  56.5500       374
  56.5720       407
  56.5940       403
  56.6160       410
  56.6380       419
  56.6600       405
  56.6820       381
  56.7040       414
  56.7260       432
  56.7480       399
  56.7700       401
  56.7920       373
  56.8140       400
  56.8360       396
  56.8580       428
  56.8800       374
  56.9020       403
  56.9240       367
  56.9460       352
  56.9680       393
  56.9900       403
  57.0120       385
  57.0340       376
  57.0560       388
  57.0780       383
  57.1000       379
  57.1220       374
  57.1440       387
  57.1660       396
  57.1880       398
  57.2100       409
  57.2320       386
  57.2540       379
  57.2760       395
  57.2980       402
  57.3200       366
  57.3420       382
  57.3640       405
  57.3860       376
  57.4080       389
  57.4300       367
  57.4520       395
  57.4740       397
  57.4960       405
  57.5180       380
  57.5400       351
  57.5620       388
  57.5840       401
  57.6060       404
  57.6280       420
  57.6500       385
  57.6720       402
  57.6940       384
  57.7160       371
  57.7380       404
  57.7600       417
  57.7820       388
  57.8040       404
  57.8260       369
  57.8480       404
  57.8700       400
  57.8920       404
  57.9140       395
  57.9360       365
  57.9580       387
  57.9800       381
  58.0020       421
  58.0240       404
  58.0460       396
  58.0680       411
  58.0900       397
  58.1120       402
  58.1340       412
  58.1560       416
  58.1780       388
  58.2000       403
  58.2220       398
  58.2440       392
  58.2660       367
  58.2880       388
  58.3100       420
  58.3320       416
  58.3540       419
  58.3760       423
  58.3980       398
  58.4200       421
  58.4420       394
  58.4640       412
  58.4860       364
  58.5080       427
  58.5300       408
  58.5520       367
  58.5740       418
  58.5960       444
  58.6180       405
  58.6400       389
  58.6620       373
  58.6840       417
  58.7060       406
  58.7280       423
  58.7500       383
  58.7720       390
  58.7940       373
  58.8160       374
  58.8380       385
  58.8600       400
  58.8820       403
  58.9040       357
  58.9260       403
  58.9480       377
  58.9700       380
  58.9920       412
  59.0140       371
  59.0360       397
  59.0580       407
  59.0800       385
  59.1020       426
  59.1240       390
  59.1460       422
  59.1680       412
  59.1900       395
  59.2120       403
  59.2340       397
  59.2560       368
  59.2780       393
  59.3000       391
  59.3220       409
  59.3440       421
  59.3660       376
  59.3880       425
  59.4100       413
  59.4320       412
  59.4540       382
  59.4760       439
  59.4980       414
  59.5200       423
  59.5420       390
  59.5640       391
  59.5860       398
  59.6080       410
  59.6300       425
  59.6520       399
  59.6740       413
  59.6960       393
  59.7180       413
  59.7400       428
  59.7620       420
  59.7840       378
  59.8060       391
  59.8280       430
  59.8500       425
  59.8720       465
  59.8940       431
  59.9160       409
  59.9380       423
  59.9600       450
  59.9820       441
  60.0040       435
  60.0260       453
  60.0480       420
  60.0700       432
  60.0920       388
  60.1140       424
  60.1360       447
  60.1580       449
  60.1800       432
  60.2020       460
  60.2240       432
  60.2460       464
  60.2680       468
  60.2900       418
  60.3120       475
  60.3340       453
  60.3560       450
  60.3780       475
  60.4000       494
  60.4220       477
  60.4440       484
  60.4660       468
  60.4880       487
  60.5100       435
  60.5320       461
  60.5540       477
  60.5760       436
  60.5980       465
  60.6200       422
  60.6420       439
  60.6640       438
  60.6860       436
  60.7080       399
  60.7300       426
  60.7520       428
  60.7740       429
  60.7960       446
  60.8180       423
  60.8400       414
  60.8620       453
  60.8840       422
  60.9060       410
  60.9280       425
  60.9500       396
  60.9720       459
  60.9940       432
  61.0160       417
  61.0380       385
  61.0600       391
  61.0820       420
  61.1040       412
  61.1260       412
  61.1480       389
  61.1700       445
  61.1920       416
  61.2140       391
  61.2360       401
  61.2580       438
  61.2800       375
  61.3020       411
  61.3240       405
  61.3460       379
  61.3680       417
  61.3900       418
  61.4120       420
  61.4340       369
  61.4560       376
  61.4780       408
  61.5000       404
  61.5220       371
  61.5440       376
  61.5660       397
  61.5880       386
  61.6100       429
  61.6320       449
  61.6540       366
  61.6760       390
  61.6980       415
  61.7200       395
  61.7420       426
  61.7640       379
  61.7860       408
  61.8080       430
  61.8300       398
  61.8520       407
  61.8740       412
  61.8960       360
  61.9180       421
  61.9400       419
  61.9620       400
  61.9840       388
  62.0060       425
  62.0280       362
  62.0500       389
  62.0720       397
  62.0940       409
  62.1160       423
  62.1380       380
  62.1600       405
  62.1820       376
  62.2040       413
  62.2260       386
  62.2480       413
  62.2700       406
  62.2920       426
  62.3140       438
  62.3360       400
  62.3580       428
  62.3800       389
  62.4020       385
  62.4240       365
  62.4460       416
  62.4680       379
  62.4900       408
  62.5120       400
  62.5340       371
  62.5560       386
  62.5780       410
  62.6000       428
  62.6220       376
  62.6440       420
  62.6660       366
  62.6880       384
  62.7100       401
  62.7320       356
  62.7540       429
  62.7760       382
  62.7980       422
  62.8200       381
  62.8420       386
  62.8640       415
  62.8860       382
  62.9080       390
  62.9300       380
  62.9520       412
  62.9740       423
  62.9960       403
  63.0180       420
  63.0400       388
  63.0620       419
  63.0840       390
  63.1060       361
  63.1280       409
  63.1500       398
  63.1720       422
  63.1940       477
  63.2160       409
  63.2380       407
  63.2600       438
  63.2820       405
  63.3040       424
  63.3260       405
  63.3480       404
  63.3700       390
  63.3920       427
  63.4140       392
  63.4360       428
  63.4580       409
  63.4800       423
  63.5020       420
  63.5240       403
  63.5460       402
  63.5680       431
  63.5900       412
  63.6120       398
  63.6340       363
  63.6560       398
  63.6780       409
  63.7000       405
  63.7220       376
  63.7440       412
  63.7660       454
  63.7880       395
  63.8100       400
  63.8320       412
  63.8540       400
  63.8760       436
  63.8980       430
  63.9200       436
  63.9420       370
  63.9640       441
  63.9860       425
  64.0080       413
  64.0300       430
  64.0520       431
  64.0740       455
  64.0960       423
  64.1180       384
  64.1400       445
  64.1620       373
  64.1840       387
  64.2060       446
  64.2280       469
  64.2500       427
  64.2720       462
  64.2940       401
  64.3160       448
  64.3380       459
  64.3600       458
  64.3820       436
  64.4040       409
  64.4260       438
  64.4480       433
  64.4700       438
  64.4920       427
  64.5140       450
  64.5360       471
  64.5580       431
  64.5800       412
  64.6020       401
  64.6240       398
  64.6460       426
  64.6680       381
  64.6900       375
  64.7120       398
  64.7340       388
  64.7560       387
  64.7780       378
  64.8000       410
  64.8220       401
  64.8440       406
  64.8660       381
  64.8880       378
  64.9100       378
  64.9320       393
  64.9540       414
  64.9760       407
  64.9980       400
  65.0200       403
  65.0420       348
  65.0640       388
  65.0860       391
  65.1080       440
  65.1300       391
  65.1520       401
  65.1740       429
  65.1960       410
  65.2180       379
  65.2400       403
  65.2620       406
  65.2840       383
  65.3060       357
  65.3280       371
  65.3500       358
  65.3720       406
  65.3940       377
  65.4160       381
  65.4380       390
  65.4600       392
  65.4820       371
  65.5040       385
  65.5260       425
  65.5480       401
  65.5700       429
  65.5920       385
  65.6140       403
  65.6360       400
  65.6580       391
  65.6800       388
  65.7020       369
  65.7240       399
  65.7460       419
  65.7680       384
  65.7900       392
  65.8120       386
  65.8340       394
  65.8560       412
  65.8780       435
  65.9000       361
  65.9220       397
  65.9440       384
  65.9660       389
  65.9880       410
  66.0100       390
  66.0320       368
  66.0540       393
  66.0760       383
  66.0980       383
  66.1200       395
  66.1420       357
  66.1640       403
  66.1860       413
  66.2080       416
  66.2300       375
  66.2520       385
  66.2740       409
  66.2960       419
  66.3180       432
  66.3400       393
  66.3620       410
  66.3840       458
  66.4060       404
  66.4280       398
  66.4500       351
  66.4720       402
  66.4940       390
  66.5160       411
  66.5380       383
  66.5600       384
  66.5820       370
  66.6040       414
  66.6260       416
  66.6480       363
  66.6700       395
  66.6920       385
  66.7140       417
  66.7360       395
  66.7580       416
  66.7800       386
  66.8020       415
  66.8240       403
  66.8460       420
  66.8680       366
  66.8900       392
  66.9120       414
  66.9340       397
  66.9560       397
  66.9780       373
  67.0000       398
  67.0220       426
  67.0440       383
  67.0660       400
  67.0880       394
  67.1100       405
  67.1320       392
  67.1540       366
  67.1760       381
  67.1980       383
  67.2200       388
  67.2420       398
  67.2640       392
  67.2860       387
  67.3080       407
  67.3300       408
  67.3520       408
  67.3740       441
  67.3960       400
  67.4180       346
  67.4400       400
  67.4620       390
  67.4840       412
  67.5060       374
  67.5280       449
  67.5500       406
  67.5720       378
  67.5940       378
  67.6160       390
  67.6380       395
  67.6600       429
  67.6820       403
  67.7040       404
  67.7260       400
  67.7480       378
  67.7700       390
  67.7920       397
  67.8140       393
  67.8360       413
  67.8580       417
  67.8800       426
  67.9020       415
  67.9240       414
  67.9460       413
  67.9680       423
  67.9900       430
  68.0120       405
  68.0340       395
  68.0560       393
  68.0780       411
  68.1000       420
  68.1220       423
  68.1440       399
  68.1660       387
  68.1880       408
  68.2100       417
  68.2320       422
  68.2540       419
  68.2760       395
  68.2980       409
  68.3200       398
  68.3420       399
  68.3640       378
  68.3860       450
  68.4080       399
  68.4300       404
  68.4520       439
  68.4740       422
  68.4960       383
  68.5180       374
  68.5400       408
  68.5620       425
  68.5840       413
  68.6060       423
  68.6280       426
  68.6500       392
  68.6720       410
  68.6940       372
  68.7160       403
  68.7380       397
  68.7600       405
  68.7820       447
  68.8040       388
  68.8260       400
  68.8480       408
  68.8700       431
  68.8920       390
  68.9140       399
  68.9360       371
  68.9580       440
  68.9800       398
  69.0020       396
  69.0240       416
  69.0460       421
  69.0680       425
  69.0900       413
  69.1120       385
  69.1340       387
  69.1560       402
  69.1780       385
  69.2000       394
  69.2220       403
  69.2440       449
  69.2660       393
  69.2880       406
  69.3100       381
  69.3320       409
  69.3540       425
  69.3760       393
  69.3980       392
  69.4200       374
  69.4420       389
  69.4640       407
  69.4860       397
  69.5080       410
  69.5300       393
  69.5520       407
  69.5740       416
  69.5960       426
  69.6180       426
  69.6400       481
  69.6620       424
  69.6840       424
  69.7060       405
  69.7280       411
  69.7500       452
  69.7720       430
  69.7940       412
  69.8160       396
  69.8380       382
  69.8600       400
  69.8820       431
  69.9040       426
  69.9260       408
  69.9480       440
  69.9700       456
  69.9920       446
  70.0140       461
  70.0360       431
  70.0580       452
  70.0800       466
  70.1020       450
  70.1240       416
  70.1460       411
  70.1680       442
  70.1900       456
  70.2120       435
  70.2340       495
  70.2560       473
  70.2780       487
  70.3000       486
  70.3220       500
  70.3440       530
  70.3660       515
  70.3880       520
  70.4100       569
  70.4320       507
  70.4540       566
  70.4760       525
  70.4980       521
  70.5200       536
  70.5420       572
  70.5640       602
  70.5860       574
  70.6080       589
  70.6300       653
  70.6520       662
  70.6740       631
  70.6960       684
  70.7180       755
  70.7400       774
  70.7620       792
  70.7840       779
  70.8060       789
  70.8280       822
  70.8500       937
  70.8720       924
  70.8940       900
  70.9160       996
  70.9380      1021
  70.9600       951
  70.9820      1036
  71.0040      1056
  71.0260      1081
  71.0480       992
  71.0700      1065
  71.0920       993
  71.1140      1000
  71.1360       998
  71.1580       953
  71.1800       910
  71.2020       900
  71.2240       847
  71.2460       844
  71.2680       783
  71.2900       799
  71.3120       748
  71.3340       712
  71.3560       728
  71.3780       747
  71.4000       588
  71.4220       617
  71.4440       618
  71.4660       597
  71.4880       529
  71.5100       520
  71.5320       570
  71.5540       530
  71.5760       512
  71.5980       473
  71.6200       485
  71.6420       503
  71.6640       450
  71.6860       436
  71.7080       465
  71.7300       460
  71.7520       449
  71.7740       446
  71.7960       455
  71.8180       485
  71.8400       437
  71.8620       438
  71.8840       459
  71.9060       454
  71.9280       442
  71.9500       441
  71.9720       426
  71.9940       440
  72.0160       440
  72.0380       441
  72.0600       429
  72.0820       432
  72.1040       407
  72.1260       419
  72.1480       431
  72.1700       445
  72.1920       421
  72.2140       430
  72.2360       408
  72.2580       403
  72.2800       416
  72.3020       375
  72.3240       450
  72.3460       441
  72.3680       397
  72.3900       397
  72.4120       427
  72.4340       409
  72.4560       368
  72.4780       420
  72.5000       398
  72.5220       420
  72.5440       428
  72.5660       371
  72.5880       383
  72.6100       406
  72.6320       419
  72.6540       424
  72.6760       387
  72.6980       388
  72.7200       416
  72.7420       403
  72.7640       448
  72.7860       382
  72.8080       366
  72.8300       426
  72.8520       354
  72.8740       402
  72.8960       419
  72.9180       402
  72.9400       399
  72.9620       425
  72.9840       429
  73.0060       385
  73.0280       408
  73.0500       379
  73.0720       405
  73.0940       410
  73.1160       439
  73.1380       425
  73.1600       407
  73.1820       400
  73.2040       368
  73.2260       420
  73.2480       393
  73.2700       405
  73.2920       425
  73.3140       406
  73.3360       425
  73.3580       378
  73.3800       406
  73.4020       392
  73.4240       418
  73.4460       422
  73.4680       433
  73.4900       426
  73.5120       386
  73.5340       384
  73.5560       397
  73.5780       394
  73.6000       398
  73.6220       413
  73.6440       374
  73.6660       417
  73.6880       410
  73.7100       431
  73.7320       437
  73.7540       424
  73.7760       388
  73.7980       407
  73.8200       405
  73.8420       387
  73.8640       412
  73.8860       393
  73.9080       373
  73.9300       397
  73.9520       403
  73.9740       397
  73.9960       407
  74.0180       417
  74.0400       385
  74.0620       412
  74.0840       390
  74.1060       409
  74.1280       422
  74.1500       389
  74.1720       387
  74.1940       411
  74.2160       424
  74.2380       405
  74.2600       394
  74.2820       432
  74.3040       417
  74.3260       398
  74.3480       369
  74.3700       432
  74.3920       408
  74.4140       388
  74.4360       394
  74.4580       416
  74.4800       431
  74.5020       407
  74.5240       415
  74.5460       457
  74.5680       407
  74.5900       458
  74.6120       418
  74.6340       461
  74.6560       458
  74.6780       409
  74.7000       454
  74.7220       400
  74.7440       425
  74.7660       419
  74.7880       430
  74.8100       406
  74.8320       380
  74.8540       410
  74.8760       444
  74.8980       418
  74.9200       422
  74.9420       392
  74.9640       479
  74.9860       385
  75.0080       416
  75.0300       419
  75.0520       424
  75.0740       392
  75.0960       378
  75.1180       382
  75.1400       422
  75.1620       426
  75.1840       417
  75.2060       409
  75.2280       392
  75.2500       432
  75.2720       386
  75.2940       420
  75.3160       416
  75.3380       450
  75.3600       380
  75.3820       415
  75.4040       416
  75.4260       416
  75.4480       421
  75.4700       421
  75.4920       405
  75.5140       422
  75.5360       418
  75.5580       445
  75.5800       465
  75.6020       475
  75.6240       427
  75.6460       420
  75.6680       466
  75.6900       447
  75.7120       462
  75.7340       460
  75.7560       462
  75.7780       429
  75.8000       469
  75.8220       445
  75.8440       440
  75.8660       493
  75.8880       485
  75.9100       425
  75.9320       476
  75.9540       470
  75.9760       435
  75.9980       457
  76.0200       456
  76.0420       449
  76.0640       445
  76.0860       464
  76.1080       450
  76.1300       416
  76.1520       443
  76.1740       425
  76.1960       487
  76.2180       501
  76.2400       437
  76.2620       433
  76.2840       441
  76.3060       433
  76.3280       423
  76.3500       424
  76.3720       451
  76.3940       474
  76.4160       469
  76.4380       418
  76.4600       460
  76.4820       421
  76.5040       493
  76.5260       418
  76.5480       415
  76.5700       426
  76.5920       410
  76.6140       423
  76.6360       410
  76.6580       431
  76.6800       415
  76.7020       464
  76.7240       414
  76.7460       387
  76.7680       434
  76.7900       428
  76.8120       414
  76.8340       439
  76.8560       393
  76.8780       436
  76.9000       415
  76.9220       442
  76.9440       397
  76.9660       417
  76.9880       459
  77.0100       435
  77.0320       419
  77.0540       436
  77.0760       426
  77.0980       406
  77.1200       456
  77.1420       435
  77.1640       430
  77.1860       429
  77.2080       380
  77.2300       402
  77.2520       448
  77.2740       432
  77.2960       453
  77.3180       453
  77.3400       416
  77.3620       422
  77.3840       414
  77.4060       456
  77.4280       406
  77.4500       421
  77.4720       430
  77.4940       419
  77.5160       427
  77.5380       410
  77.5600       400
  77.5820       452
  77.6040       432
  77.6260       412
  77.6480       406
  77.6700       417
  77.6920       427
  77.7140       427
  77.7360       402
  77.7580       436
  77.7800       428
  77.8020       419
  77.8240       407
  77.8460       454
  77.8680       408
  77.8900       388
  77.9120       408
  77.9340       397
  77.9560       416
  77.9780       390
  78.0000       376
  78.0220       430
  78.0440       467
  78.0660       434
  78.0880       415
  78.1100       416
  78.1320       414
  78.1540       427
  78.1760       439
  78.1980       398
  78.2200       416
  78.2420       410
  78.2640       432
  78.2860       424
  78.3080       419
  78.3300       389
  78.3520       368
  78.3740       397
  78.3960       396
  78.4180       381
  78.4400       431
  78.4620       398
  78.4840       413
  78.5060       384
  78.5280       448
  78.5500       416
  78.5720       403
  78.5940       403
  78.6160       423
  78.6380       390
  78.6600       445
  78.6820       422
  78.7040       409
  78.7260       398
  78.7480       423
  78.7700       432
  78.7920       408
  78.8140       426
  78.8360       387
  78.8580       440
  78.8800       420
  78.9020       420
  78.9240       419
  78.9460       414
  78.9680       419
  78.9900       403
  79.0120       385
  79.0340       406
  79.0560       396
  79.0780       418
  79.1000       395
  79.1220       401
  79.1440       425
  79.1660       429
  79.1880       449
  79.2100       365
  79.2320       409
  79.2540       393
  79.2760       398
  79.2980       406
  79.3200       420
  79.3420       384
  79.3640       396
  79.3860       438
  79.4080       418
  79.4300       419
  79.4520       415
  79.4740       417
  79.4960       441
  79.5180       427
  79.5400       409
  79.5620       398
  79.5840       436
  79.6060       426
  79.6280       407
  79.6500       424
  79.6720       405
  79.6940       453
  79.7160       385
  79.7380       385
  79.7600       403
  79.7820       429
  79.8040       417
  79.8260       438
  79.8480       432
  79.8700       422
  79.8920       417
  79.9140       400
  79.9360       424
  79.9580       393
  79.9800       407
  80.0020       418
  80.0240       409
  80.0460       417
  80.0680       448
  80.0900       431
  80.1120       425
  80.1340       444
  80.1560       429
  80.1780       435
  80.2000       409
  80.2220       436
  80.2440       416
  80.2660       433
  80.2880       414
  80.3100       467
  80.3320       444
  80.3540       440
  80.3760       429
  80.3980       438
  80.4200       415
  80.4420       408
  80.4640       460
  80.4860       428
  80.5080       406
  80.5300       419
  80.5520       415
  80.5740       426
  80.5960       420
  80.6180       411
  80.6400       449
  80.6620       430
  80.6840       450
  80.7060       398
  80.7280       410
  80.7500       455
  80.7720       477
  80.7940       456
  80.8160       473
  80.8380       451
  80.8600       447
  80.8820       428
  80.9040       484
  80.9260       437
  80.9480       439
  80.9700       424
  80.9920       429
  81.0140       487
  81.0360       439
  81.0580       462
  81.0800       460
  81.1020       448
  81.1240       405
  81.1460       461
  81.1680       418
  81.1900       453
  81.2120       418
  81.2340       411
  81.2560       447
  81.2780       402
  81.3000       432
  81.3220       462
  81.3440       437
  81.3660       442
  81.3880       461
  81.4100       444
  81.4320       449
  81.4540       429
  81.4760       411
  81.4980       460
  81.5200       437
  81.5420       444
  81.5640       453
  81.5860       475
  81.6080       415
  81.6300       460
  81.6520       423
  81.6740       414
  81.6960       436
  81.7180       448
  81.7400       425
  81.7620       470
  81.7840       408
  81.8060       418
  81.8280       457
  81.8500       427
  81.8720       445
  81.8940       404
  81.9160       408
  81.9380       427
  81.9600       433
  81.9820       432
  82.0040       408
  82.0260       405
  82.0480       441
  82.0700       442
  82.0920       423
  82.1140       424
  82.1360       433
  82.1580       401
  82.1800       476
  82.2020       366
  82.2240       423
  82.2460       469
  82.2680       429
  82.2900       404
  82.3120       490
  82.3340       438
  82.3560       384
  82.3780       420
  82.4000       406
  82.4220       406
  82.4440       435
  82.4660       461
  82.4880       379
  82.5100       403
  82.5320       426
  82.5540       449
  82.5760       411
  82.5980       419
  82.6200       425
  82.6420       403
  82.6640       420
  82.6860       398
  82.7080       425
  82.7300       445
  82.7520       438
  82.7740       409
  82.7960       444
  82.8180       452
  82.8400       474
  82.8620       430
  82.8840       425
  82.9060       427
  82.9280       393
  82.9500       469
  82.9720       414
  82.9940       409
  83.0160       395
  83.0380       416
  83.0600       412
  83.0820       432
  83.1040       419
  83.1260       444
  83.1480       383
  83.1700       416
  83.1920       419
  83.2140       438
  83.2360       422
  83.2580       403
  83.2800       399
  83.3020       458
  83.3240       436
  83.3460       412
  83.3680       436
  83.3900       431
  83.4120       420
  83.4340       467
  83.4560       401
  83.4780       410
  83.5000       381
  83.5220       461
  83.5440       418
  83.5660       442
  83.5880       417
  83.6100       440
  83.6320       416
  83.6540       441
  83.6760       419
  83.6980       433
  83.7200       460
  83.7420       420
  83.7640       441
  83.7860       431
  83.8080       391
  83.8300       440
  83.8520       372
  83.8740       445
  83.8960       440
  83.9180       446
  83.9400       429
  83.9620       431
  83.9840       412
  84.0060       378
  84.0280       429
  84.0500       419
  84.0720       438
  84.0940       433
  84.1160       407
  84.1380       466
  84.1600       444
  84.1820       438
  84.2040       447
  84.2260       413
  84.2480       435
  84.2700       468
  84.2920       448
  84.3140       467
  84.3360       469
  84.3580       469
  84.3800       427
  84.4020       439
  84.4240       459
  84.4460       426
  84.4680       448
  84.4900       468
  84.5120       437
  84.5340       443
  84.5560       445
  84.5780       467
  84.6000       457
  84.6220       474
  84.6440       444
  84.6660       454
  84.6880       455
  84.7100       452
  84.7320       481
  84.7540       500
  84.7760       488
  84.7980       499
  84.8200       481
  84.8420       473
  84.8640       467
  84.8860       465
  84.9080       519
  84.9300       545
  84.9520       512
  84.9740       534
  84.9960       569
  85.0180       528
  85.0400       572
  85.0620       558
  85.0840       555
  85.1060       585
  85.1280       558
  85.1500       549
  85.1720       607
  85.1940       615
  85.2160       592
  85.2380       665
  85.2600       616
  85.2820       638
  85.3040       585
  85.3260       640
  85.3480       643
  85.3700       676
  85.3920       691
  85.4140       696
  85.4360       749
  85.4580       750
  85.4800       753
  85.5020       803
  85.5240       840
  85.5460       786
  85.5680       799
  85.5900       860
  85.6120       837
  85.6340       886
  85.6560       922
  85.6780       968
  85.7000       919
  85.7220       942
  85.7440      1004
  85.7660       966
  85.7880       891
  85.8100      1022
  85.8320       955
  85.8540      1019
  85.8760      1029
  85.8980       980
  85.9200       947
  85.9420      1022
  85.9640       978
  85.9860      1039
  86.0080       922
  86.0300       953
  86.0520       898
  86.0740       952
  86.0960       914
  86.1180       939
  86.1400       876
  86.1620       874
  86.1840       865
  86.2060       787
  86.2280       791
  86.2500       801
  86.2720       804
  86.2940       797
  86.3160       717
  86.3380       745
  86.3600       715
  86.3820       638
  86.4040       673
  86.4260       586
  86.4480       636
  86.4700       614
  86.4920       589
  86.5140       548
  86.5360       623
  86.5580       583
  86.5800       532
  86.6020       575
  86.6240       536
  86.6460       538
  86.6680       515
  86.6900       523
  86.7120       542
  86.7340       540
  86.7560       520
  86.7780       503
  86.8000       509
  86.8220       510
  86.8440       528
  86.8660       486
  86.8880       462
  86.9100       473
  86.9320       446
  86.9540       449
  86.9760       455
  86.9980       477
  87.0200       472
  87.0420       432
  87.0640       425
  87.0860       453
  87.1080       453
  87.1300       458
  87.1520       441
  87.1740       427
  87.1960       446
  87.2180       444
  87.2400       444
  87.2620       425
  87.2840       471
  87.3060       456
  87.3280       454
  87.3500       442
  87.3720       445
  87.3940       453
  87.4160       421
  87.4380       410
  87.4600       427
  87.4820       437
  87.5040       406
  87.5260       433
  87.5480       412
  87.5700       434
  87.5920       407
  87.6140       456
  87.6360       411
  87.6580       416
  87.6800       411
  87.7020       419
  87.7240       435
  87.7460       401
  87.7680       416
  87.7900       430
  87.8120       433
  87.8340       402
  87.8560       403
  87.8780       429
  87.9000       442
  87.9220       395
  87.9440       453
  87.9660       407
  87.9880       402
  88.0100       444
  88.0320       432
  88.0540       476
  88.0760       393
  88.0980       418
  88.1200       437
  88.1420       455
  88.1640       425
  88.1860       426
  88.2080       414
  88.2300       430
  88.2520       422
  88.2740       454
  88.2960       409
  88.3180       413
  88.3400       414
  88.3620       442
  88.3840       399
  88.4060       409
  88.4280       391
  88.4500       440
  88.4720       427
  88.4940       388
  88.5160       444
  88.5380       413
  88.5600       410
  88.5820       403
  88.6040       432
  88.6260       417
  88.6480       417
  88.6700       439
  88.6920       426
  88.7140       429
  88.7360       408
  88.7580       393
  88.7800       426
  88.8020       431
  88.8240       459
  88.8460       423
  88.8680       433
  88.8900       392
  88.9120       428
  88.9340       413
  88.9560       411
  88.9780       405
  89.0000       446
  89.0220       417
  89.0440       432
  89.0660       436
  89.0880       420
  89.1100       432
  89.1320       419
  89.1540       394
  89.1760       395
  89.1980       413
  89.2200       405
  89.2420       409
  89.2640       417
  89.2860       440
  89.3080       424
  89.3300       436
  89.3520       435
  89.3740       414
  89.3960       368
  89.4180       376
  89.4400       415
  89.4620       427
  89.4840       408
  89.5060       424
  89.5280       436
  89.5500       379
  89.5720       422
  89.5940       425
  89.6160       441
  89.6380       422
  89.6600       411
  89.6820       471
  89.7040       401
  89.7260       405
  89.7480       421
  89.7700       415
  89.7920       446
  89.8140       452
  89.8360       446
  89.8580       430
  89.8800       393
  89.9020       442
  89.9240       425
  89.9460       460
  89.9680       444
  89.9900       430
  90.0120       450
  90.0340       486
  90.0560       427
  90.0780       426
  90.1000       420
  90.1220       466
  90.1440       497
  90.1660       476
  90.1880       454
  90.2100       477
  90.2320       466
  90.2540       472
  90.2760       483
  90.2980       501
  90.3200       520
  90.3420       477
  90.3640       469
  90.3860       485
  90.4080       508
  90.4300       490
  90.4520       526
  90.4740       555
  90.4960       526
  90.5180       564
  90.5400       572
  90.5620       599
  90.5840       549
  90.6060       582
  90.6280       529
  90.6500       597
  90.6720       555
  90.6940       553
  90.7160       535
  90.7380       557
  90.7600       585
  90.7820       559
  90.8040       575
  90.8260       555
  90.8480       610
  90.8700       611
  90.8920       589
  90.9140       589
  90.9360       552
  90.9580       565
  90.9800       554
  91.0020       556
  91.0240       549
  91.0460       510
  91.0680       495
  91.0900       517
  91.1120       526
  91.1340       499
  91.1560       537
  91.1780       524
  91.2000       487
  91.2220       493
  91.2440       483
  91.2660       516
  91.2880       506
  91.3100       464
  91.3320       459
  91.3540       456
  91.3760       471
  91.3980       443
  91.4200       447
  91.4420       453
  91.4640       443
  91.4860       420
  91.5080       451
  91.5300       450
  91.5520       421
  91.5740       419
  91.5960       413
  91.6180       456
  91.6400       453
  91.6620       414
  91.6840       469
  91.7060       364
  91.7280       370
  91.7500       427
  91.7720       440
  91.7940       401
  91.8160       410
  91.8380       408
  91.8600       407
  91.8820       398
  91.9040       397
  91.9260       403
  91.9480       415
  91.9700       400
  91.9920       427
  92.0140       446
  92.0360       416
  92.0580       398
  92.0800       429
  92.1020       401
  92.1240       421
  92.1460       438
  92.1680       403
  92.1900       392
  92.2120       399
  92.2340       390
  92.2560       427
  92.2780       408
  92.3000       428
  92.3220       400
  92.3440       417
  92.3660       430
  92.3880       400
  92.4100       433
  92.4320       385
  92.4540       407
  92.4760       412
  92.4980       409
  92.5200       394
  92.5420       434
  92.5640       429
  92.5860       441
  92.6080       381
  92.6300       403
  92.6520       409
  92.6740       418
  92.6960       421
  92.7180       435
  92.7400       430
  92.7620       418
  92.7840       422
  92.8060       415
  92.8280       396
  92.8500       386
  92.8720       372
  92.8940       414
  92.9160       419
  92.9380       409
  92.9600       430
  92.9820       433
  93.0040       413
  93.0260       413
  93.0480       425
  93.0700       391
  93.0920       391
  93.1140       401
  93.1360       404
  93.1580       369
  93.1800       400
  93.2020       412
  93.2240       411
  93.2460       401
  93.2680       443
  93.2900       427
  93.3120       446
  93.3340       421
  93.3560       400
  93.3780       404
  93.4000       419
  93.4220       438
  93.4440       414
  93.4660       388
  93.4880       416
  93.5100       419
  93.5320       396
  93.5540       422
  93.5760       398
  93.5980       416
  93.6200       405
  93.6420       446
  93.6640       408
  93.6860       414
  93.7080       407
  93.7300       405
  93.7520       408
  93.7740       411
  93.7960       417
  93.8180       406
  93.8400       414
  93.8620       419
  93.8840       396
  93.9060       402
  93.9280       384
  93.9500       421
  93.9720       441
  93.9940       462
  94.0160       370
  94.0380       406
  94.0600       441
  94.0820       406
  94.1040       421
  94.1260       411
  94.1480       404
  94.1700       404
  94.1920       412
  94.2140       446
  94.2360       434
  94.2580       408
  94.2800       405
  94.3020       414
  94.3240       434
  94.3460       434
  94.3680       406
  94.3900       432
  94.4120       397
  94.4340       404
  94.4560       420
  94.4780       388
  94.5000       463
  94.5220       418
  94.5440       432
  94.5660       386
  94.5880       374
  94.6100       421
  94.6320       415
  94.6540       377
  94.6760       420
  94.6980       392
  94.7200       436
  94.7420       470
  94.7640       437
  94.7860       393
  94.8080       428
  94.8300       415
  94.8520       402
  94.8740       434
  94.8960       416
  94.9180       400
  94.9400       444
  94.9620       426
  94.9840       412
  95.0060       451
  95.0280       392
  95.0500       442
  95.0720       397
  95.0940       433
  95.1160       423
  95.1380       414
  95.1600       427
  95.1820       408
  95.2040       394
  95.2260       452
  95.2480       457
  95.2700       416
  95.2920       404
  95.3140       451
  95.3360       474
  95.3580       401
  95.3800       410
  95.4020       447
  95.4240       436
  95.4460       389
  95.4680       452
  95.4900       481
  95.5120       470
  95.5340       426
  95.5560       461
  95.5780       445
  95.6000       409
  95.6220       410
  95.6440       419
  95.6660       426
  95.6880       437
  95.7100       436
  95.7320       450
  95.7540       431
  95.7760       464
  95.7980       417
  95.8200       461
  95.8420       431
  95.8640       447
  95.8860       446
  95.9080       449
  95.9300       444
  95.9520       453
  95.9740       416
  95.9960       442
  96.0180       419
  96.0400       455
  96.0620       396
  96.0840       402
  96.1060       449
  96.1280       447
  96.1500       463
  96.1720       431
  96.1940       421
  96.2160       419
  96.2380       434
  96.2600       425
  96.2820       399
  96.3040       426
  96.3260       434
  96.3480       440
  96.3700       458
  96.3920       425
  96.4140       447
  96.4360       438
  96.4580       430
  96.4800       433
  96.5020       414
  96.5240       414
  96.5460       404
  96.5680       419
  96.5900       414
  96.6120       484
  96.6340       424
  96.6560       464
  96.6780       468
  96.7000       392
  96.7220       443
  96.7440       467
  96.7660       371
  96.7880       410
  96.8100       415
  96.8320       423
  96.8540       427
  96.8760       437
  96.8980       407
  96.9200       431
  96.9420       412
  96.9640       420
  96.9860       414
  97.0080       421
  97.0300       405
  97.0520       392
  97.0740       388
  97.0960       434
  97.1180       445
  97.1400       381
  97.1620       426
  97.1840       421
  97.2060       417
  97.2280       441
  97.2500       414
  97.2720       407
  97.2940       437
  97.3160       374
  97.3380       424
  97.3600       395
  97.3820       376
  97.4040       398
  97.4260       405
  97.4480       426
  97.4700       440
  97.4920       390
  97.5140       396
  97.5360       402
  97.5580       443
  97.5800       403
  97.6020       410
  97.6240       408
  97.6460       421
  97.6680       439
  97.6900       407
  97.7120       427
  97.7340       412
  97.7560       405
  97.7780       441
  97.8000       391
  97.8220       414
  97.8440       423
  97.8660       413
  97.8880       443
  97.9100       433
  97.9320       424
  97.9540       386
  97.9760       436
  97.9980       402
  98.0200       403
  98.0420       388
  98.0640       395
  98.0860       425
  98.1080       406
  98.1300       396
  98.1520       423
  98.1740       429
  98.1960       438
  98.2180       413
  98.2400       433
  98.2620       395
  98.2840       424
  98.3060       414
  98.3280       384
  98.3500       447
  98.3720       405
  98.3940       424
  98.4160       396
  98.4380       408
  98.4600       371
  98.4820       406
  98.5040       430
  98.5260       389
  98.5480       406
  98.5700       430
  98.5920       403
  98.6140       402
  98.6360       434
  98.6580       413
  98.6800       385
  98.7020       397
  98.7240       396
  98.7460       378
  98.7680       462
  98.7900       423
  98.8120       399
  98.8340       393
  98.8560       424
  98.8780       394
  98.9000       397
  98.9220       459
  98.9440       445
  98.9660       423
  98.9880       405
  99.0100       412
  99.0320       373
  99.0540       426
  99.0760       408
  99.0980       423
  99.1200       399
  99.1420       447
  99.1640       370
  99.1860       392
  99.2080       403
  99.2300       406
  99.2520       416
  99.2740       445
  99.2960       407
  99.3180       438
  99.3400       431
  99.3620       416
  99.3840       424
  99.4060       425
  99.4280       439
  99.4500       438
  99.4720       387
  99.4940       429
  99.5160       432
  99.5380       420
  99.5600       420
  99.5820       443
  99.6040       453
  99.6260       423
  99.6480       448
  99.6700       455
  99.6920       439
  99.7140       420
  99.7360       422
  99.7580       428
  99.7800       414
  99.8020       482
  99.8240       423
  99.8460       460
  99.8680       427
  99.8900       423
  99.9120       431
  99.9340       404
  99.9560       485
  99.9780       427
 100.0000       430
 100.0220       427
 100.0440       440
 100.0660       437
 100.0880       405
 100.1100       407
 100.1320       465
 100.1540       436
 100.1760       428
 100.1980       462
 100.2200       413
 100.2420       462
 100.2640       453
 100.2860       442
 100.3080       433
 100.3300       451
 100.3520       462
 100.3740       456
 100.3960       437
 100.4180       499
 100.4400       437
 100.4620       438
 100.4840       454
 100.5060       473
 100.5280       470
 100.5500       454
 100.5720       466
 100.5940       468
 100.6160       474
 100.6380       432
 100.6600       481
 100.6820       461
 100.7040       415
 100.7260       457
 100.7480       413
 100.7700       429
 100.7920       457
 100.8140       452
 100.8360       420
 100.8580       419
 100.8800       447
 100.9020       417
 100.9240       464
 100.9460       493
 100.9680       435
 100.9900       452
 101.0120       450
 101.0340       441
 101.0560       443
 101.0780       467
 101.1000       454
 101.1220       448
 101.1440       447
 101.1660       444
 101.1880       403
 101.2100       447
 101.2320       436
 101.2540       432
 101.2760       463
 101.2980       429
 101.3200       447
 101.3420       470
 101.3640       449
 101.3860       431
 101.4080       467
 101.4300       405
 101.4520       426
 101.4740       426
 101.4960       466
 101.5180       418
 101.5400       447
 101.5620       414
 101.5840       447
 101.6060       427
 101.6280       403
 101.6500       409
 101.6720       441
 101.6940       431
 101.7160       439
 101.7380       414
 101.7600       430
 101.7820       420
 101.8040       433
 101.8260       399
 101.8480       418
 101.8700       432
 101.8920       410
 101.9140       428
 101.9360       411
 101.9580       431
 101.9800       411
 102.0020       424
 102.0240       428
 102.0460       399
 102.0680       451
 102.0900       399
 102.1120       403
 102.1340       405
 102.1560       434
 102.1780       397
 102.2000       413
 102.2220       415
 102.2440       418
 102.2660       458
 102.2880       441
 102.3100       419
 102.3320       427
 102.3540       409
 102.3760       411
 102.3980       406
 102.4200       427
 102.4420       471
 102.4640       478
 102.4860       399
 102.5080       408
 102.5300       423
 102.5520       400
 102.5740       431
 102.5960       398
 102.6180       418
 102.6400       404
 102.6620       417
 102.6840       408
 102.7060       435
 102.7280       392
 102.7500       433
 102.7720       406
 102.7940       417
 102.8160       390
 102.8380       450
 102.8600       439
 102.8820       408
 102.9040       396
 102.9260       385
 102.9480       435
 102.9700       469
 102.9920       423
 103.0140       436
 103.0360       395
 103.0580       411
 103.0800       412
 103.1020       428
 103.1240       435
 103.1460       387
 103.1680       436
 103.1900       414
 103.2120       418
 103.2340       417
 103.2560       406
 103.2780       381
 103.3000       428
 103.3220       419
 103.3440       443
 103.3660       421
 103.3880       421
 103.4100       446
 103.4320       424
 103.4540       480
 103.4760       411
 103.4980       429
 103.5200       408
 103.5420       396
 103.5640       410
 103.5860       434
 103.6080       406
 103.6300       405
 103.6520       420
 103.6740       454
 103.6960       420
 103.7180       451
 103.7400       398
 103.7620       425
 103.7840       387
 103.8060       436
 103.8280       443
 103.8500       453
 103.8720       425
 103.8940       423
 103.9160       410
 103.9380       419
 103.9600       469
 103.9820       397
 104.0040       437
 104.0260       387
 104.0480       420
 104.0700       413
 104.0920       413
 104.1140       474
 104.1360       417
 104.1580       379
 104.1800       421
 104.2020       394
 104.2240       436
 104.2460       381
 104.2680       396
 104.2900       412
 104.3120       436
 104.3340       439
 104.3560       396
 104.3780       431
 104.4000       425
 104.4220       436
 104.4440       395
 104.4660       412
 104.4880       433
 104.5100       433
 104.5320       397
 104.5540       384
 104.5760       432
 104.5980       436
 104.6200       403
 104.6420       406
 104.6640       427
 104.6860       386
 104.7080       412
 104.7300       440
 104.7520       420
 104.7740       430
 104.7960       421
 104.8180       407
 104.8400       463
 104.8620       470
 104.8840       428
 104.9060       397
 104.9280       416
 104.9500       425
 104.9720       400
 104.9940       411
 105.0160       399
 105.0380       382
 105.0600       402
 105.0820       393
 105.1040       435
 105.1260       371
 105.1480       443
 105.1700       437
 105.1920       435
 105.2140       442
 105.2360       436
 105.2580       398
 105.2800       421
 105.3020       461
 105.3240       422
 105.3460       429
 105.3680       391
 105.3900       463
 105.4120       393
 105.4340       430
 105.4560       457
 105.4780       421
 105.5000       420
 105.5220       375
 105.5440       420
 105.5660       443
 105.5880       404
 105.6100       419
 105.6320       417
 105.6540       409
 105.6760       441
 105.6980       406
 105.7200       434
 105.7420       395
 105.7640       405
 105.7860       441
 105.8080       408
 105.8300       428
 105.8520       417
 105.8740       413
 105.8960       414
 105.9180       417
 105.9400       415
 105.9620       436
 105.9840       403
 106.0060       455
 106.0280       402
 106.0500       445
 106.0720       441
 106.0940       402
 106.1160       418
 106.1380       451
 106.1600       413
 106.1820       430
 106.2040       402
 106.2260       401
 106.2480       442
 106.2700       395
 106.2920       432
 106.3140       436
 106.3360       478
 106.3580       425
 106.3800       439
 106.4020       428
 106.4240       370
 106.4460       422
 106.4680       378
 106.4900       414
 106.5120       427
 106.5340       438
 106.5560       428
 106.5780       408
 106.6000       423
 106.6220       452
 106.6440       445
 106.6660       431
 106.6880       433
 106.7100       424
 106.7320       423
 106.7540       407
 106.7760       422
 106.7980       389
 106.8200       407
 106.8420       453
 106.8640       425
 106.8860       415
 106.9080       455
 106.9300       444
 106.9520       428
 106.9740       409
 106.9960       452
 107.0180       424
 107.0400       394
 107.0620       423
 107.0840       411
 107.1060       439
 107.1280       419
 107.1500       415
 107.1720       429
 107.1940       427
 107.2160       414
 107.2380       418
 107.2600       431
 107.2820       469
 107.3040       432
 107.3260       447
 107.3480       383
 107.3700       465
 107.3920       423
 107.4140       457
 107.4360       440
 107.4580       412
 107.4800       448
 107.5020       424
 107.5240       445
 107.5460       428
 107.5680       413
 107.5900       412
 107.6120       438
 107.6340       428
 107.6560       423
 107.6780       448
 107.7000       470
 107.7220       462
 107.7440       448
 107.7660       421
 107.7880       454
 107.8100       403
 107.8320       415
 107.8540       414
 107.8760       415
 107.8980       436
 107.9200       449
 107.9420       421
 107.9640       434
 107.9860       398
 108.0080       410
 108.0300       440
 108.0520       442
 108.0740       427
 108.0960       401
 108.1180       410
 108.1400       436
 108.1620       421
 108.1840       427
 108.2060       447
 108.2280       412
 108.2500       412
 108.2720       421
 108.2940       427
 108.3160       451
 108.3380       447
 108.3600       450
 108.3820       429
 108.4040       434
 108.4260       443
 108.4480       448
 108.4700       468
 108.4920       452
 108.5140       405
 108.5360       425
 108.5580       465
 108.5800       442
 108.6020       503
 108.6240       472
 108.6460       453
 108.6680       466
 108.6900       430
 108.7120       428
 108.7340       420
 108.7560       451
 108.7780       424
 108.8000       425
 108.8220       452
 108.8440       465
 108.8660       461
 108.8880       443
 108.9100       471
 108.9320       432
 108.9540       433
 108.9760       450
 108.9980       444
 109.0200       420
 109.0420       415
 109.0640       448
 109.0860       480
 109.1080       442
 109.1300       420
 109.1520       401
 109.1740       455
 109.1960       470
 109.2180       484
 109.2400       455
 109.2620       438
 109.2840       454
 109.3060       479
 109.3280       462
 109.3500       468
 109.3720       440
 109.3940       438
 109.4160       413
 109.4380       475
 109.4600       455
 109.4820       485
 109.5040       465
 109.5260       448
 109.5480       516
 109.5700       483
 109.5920       488
 109.6140       484
 109.6360       459
 109.6580       452
 109.6800       491
 109.7020       494
 109.7240       481
 109.7460       467
 109.7680       476
 109.7900       497
 109.8120       478
 109.8340       476
 109.8560       499
 109.8780       435
 109.9000       499
 109.9220       509
 109.9440       519
 109.9660       518
 109.9880       507
 110.0100       499
 110.0320       478
 110.0540       540
 110.0760       488
 110.0980       495
 110.1200       524
 110.1420       526
 110.1640       546
 110.1860       539
 110.2080       493
 110.2300       531
 110.2520       504
 110.2740       520
 110.2960       529
 110.3180       495
 110.3400       567
 110.3620       571
 110.3840       492
 110.4060       560
 110.4280       540
 110.4500       551
 110.4720       582
 110.4940       565
 110.5160       518
 110.5380       585
 110.5600       556
 110.5820       571
 110.6040       570
 110.6260       551
 110.6480       543
 110.6700       545
 110.6920       581
 110.7140       536
 110.7360       504
 110.7580       547
 110.7800       505
 110.8020       543
 110.8240       524
 110.8460       542
 110.8680       518
 110.8900       514
 110.9120       537
 110.9340       526
 110.9560       502
 110.9780       491
 111.0000       530
 111.0220       523
 111.0440       494
 111.0660       523
 111.0880       535
 111.1100       471
 111.1320       517
 111.1540       478
 111.1760       530
 111.1980       518
 111.2200       530
 111.2420       535
 111.2640       459
 111.2860       489
 111.3080       487
 111.3300       499
 111.3520       508
 111.3740       500
 111.3960       479
 111.4180       467
 111.4400       452
 111.4620       449
 111.4840       451
 111.5060       458
 111.5280       485
 111.5500       456
 111.5720       486
 111.5940       456
 111.6160       475
 111.6380       460
 111.6600       435
 111.6820       466
 111.7040       437
 111.7260       436
 111.7480       454
 111.7700       438
 111.7920       453
 111.8140       446
 111.8360       478
 111.8580       448
 111.8800       488
 111.9020       435
 111.9240       428
 111.9460       476
 111.9680       459
 111.9900       478
 112.0120       446
 112.0340       427
 112.0560       422
 112.0780       459
 112.1000       404
 112.1220       449
 112.1440       471
 112.1660       462
 112.1880       473
 112.2100       436
 112.2320       448
 112.2540       454
 112.2760       460
 112.2980       416
 112.3200       396
 112.3420       421
 112.3640       435
 112.3860       443
 112.4080       438
 112.4300       451
 112.4520       463
 112.4740       467
 112.4960       396
 112.5180       423
 112.5400       445
 112.5620       447
 112.5840       442
 112.6060       437
 112.6280       447
 112.6500       447
 112.6720       462
 112.6940       448
 112.7160       416
 112.7380       407
 112.7600       454
 112.7820       404
 112.8040       437
 112.8260       478
 112.8480       455
 112.8700       446
 112.8920       444
 112.9140       444
 112.9360       441
 112.9580       458
 112.9800       409
 113.0020       431
 113.0240       424
 113.0460       440
 113.0680       393
 113.0900       430
 113.1120       421
 113.1340       414
 113.1560       439
 113.1780       425
 113.2000       433
 113.2220       443
 113.2440       464
 113.2660       421
 113.2880       455
 113.3100       445
 113.3320       415
 113.3540       434
 113.3760       431
 113.3980       441
 113.4200       433
 113.4420       456
 113.4640       452
 113.4860       424
 113.5080       449
 113.5300       449
 113.5520       426
 113.5740       448
 113.5960       469
 113.6180       396
 113.6400       462
 113.6620       430
 113.6840       441
 113.7060       458
 113.7280       436
 113.7500       434
 113.7720       419
 113.7940       474
 113.8160       463
 113.8380       433
 113.8600       479
 113.8820       437
 113.9040       422
 113.9260       417
 113.9480       447
 113.9700       427
 113.9920       438
 114.0140       466
 114.0360       428
 114.0580       479
 114.0800       454
 114.1020       444
 114.1240       427
 114.1460       457
 114.1680       433
 114.1900       436
 114.2120       444
 114.2340       443
 114.2560       470
 114.2780       465
 114.3000       438
 114.3220       419
 114.3440       453
 114.3660       436
 114.3880       442
 114.4100       434
 114.4320       431
 114.4540       447
 114.4760       445
 114.4980       382
 114.5200       452
 114.5420       451
 114.5640       431
 114.5860       485
 114.6080       436
 114.6300       421
 114.6520       456
 114.6740       442
 114.6960       459
 114.7180       446
 114.7400       482
 114.7620       471
 114.7840       463
 114.8060       430
 114.8280       419
 114.8500       433
 114.8720       424
 114.8940       483
 114.9160       463
 114.9380       457
 114.9600       435
 114.9820       482
 115.0040       442
 115.0260       450
 115.0480       431
 115.0700       475
 115.0920       434
 115.1140       509
 115.1360       450
 115.1580       411
 115.1800       451
 115.2020       482
 115.2240       462
 115.2460       449
 115.2680       473
 115.2900       459
 115.3120       484
 115.3340       460
 115.3560       470
 115.3780       473
 115.4000       429
 115.4220       463
 115.4440       474
 115.4660       487
 115.4880       503
 115.5100       494
 115.5320       475
 115.5540       480
 115.5760       455
 115.5980       497
 115.6200       512
 115.6420       448
 115.6640       473
 115.6860       476
 115.7080       510
 115.7300       445
 115.7520       465
 115.7740       451
 115.7960       462
 115.8180       453
 115.8400       473
 115.8620       497
 115.8840       475
 115.9060       494
 115.9280       448
 115.9500       478
 115.9720       475
 115.9940       515
 116.0160       498
 116.0380       486
 116.0600       461
 116.0820       457
 116.1040       509
 116.1260       498
 116.1480       476
 116.1700       461
 116.1920       457
 116.2140       452
 116.2360       470
 116.2580       509
 116.2800       486
 116.3020       462
 116.3240       507
 116.3460       485
 116.3680       492
 116.3900       493
 116.4120       463
 116.4340       441
 116.4560       442
 116.4780       469
 116.5000       435
 116.5220       459
 116.5440       470
 116.5660       468
 116.5880       479
 116.6100       458
 116.6320       496
 116.6540       472
 116.6760       459
 116.6980       457
 116.7200       455
 116.7420       452
 116.7640       479
 116.7860       468
 116.8080       467
 116.8300       484
 116.8520       435
 116.8740       464
 116.8960       437
 116.9180       464
 116.9400       425
 116.9620       429
 116.9840       486
 117.0060       452
 117.0280       450
 117.0500       428
 117.0720       432
 117.0940       438
 117.1160       439
 117.1380       475
 117.1600       442
 117.1820       455
 117.2040       462
 117.2260       458
 117.2480       436
 117.2700       483
 117.2920       441
 117.3140       502
 117.3360       447
 117.3580       461
 117.3800       464
 117.4020       449
 117.4240       453
 117.4460       445
 117.4680       466
 117.4900       404
 117.5120       415
 117.5340       464
 117.5560       457
 117.5780       493
 117.6000       460
 117.6220       443
 117.6440       469
 117.6660       437
 117.6880       481
 117.7100       442
 117.7320       462
 117.7540       451
 117.7760       471
 117.7980       439
 117.8200       440
 117.8420       453
 117.8640       459
 117.8860       441
 117.9080       447
 117.9300       442
 117.9520       410
 117.9740       454
 117.9960       454
 118.0180       447
 118.0400       416
 118.0620       466
 118.0840       418
 118.1060       418
 118.1280       473
 118.1500       440
 118.1720       421
 118.1940       430
 118.2160       447
 118.2380       407
 118.2600       404
 118.2820       449
 118.3040       464
 118.3260       432
 118.3480       428
 118.3700       428
 118.3920       418
 118.4140       436
 118.4360       479
 118.4580       417
 118.4800       466
 118.5020       436
 118.5240       414
 118.5460       459
 118.5680       446
 118.5900       435
 118.6120       418
 118.6340       441
 118.6560       449
 118.6780       462
 118.7000       444
 118.7220       456
 118.7440       454
 118.7660       430
 118.7880       426
 118.8100       460
 118.8320       435
 118.8540       465
 118.8760       414
 118.8980       407
 118.9200       428
 118.9420       399
 118.9640       458
 118.9860       469
 119.0080       444
 119.0300       418
 119.0520       443
 119.0740       446
 119.0960       431
 119.1180       431
 119.1400       451
 119.1620       422
 119.1840       438
 119.2060       440
 119.2280       426
 119.2500       446
 119.2720       488
 119.2940       433
 119.3160       462
 119.3380       457
 119.3600       448
 119.3820       452
 119.4040       474
 119.4260       443
 119.4480       458
 119.4700       417
 119.4920       436
 119.5140       440
 119.5360       441
 119.5580       459
 119.5800       438
 119.6020       461
 119.6240       450
 119.6460       470
 119.6680       459
 119.6900       442
 119.7120       426
 119.7340       486
 119.7560       461
 119.7780       471
 119.8000       447
 119.8220       458
 119.8440       442
 119.8660       445
 119.8880       451
 119.9100       436
 119.9320       508
 119.9540       463
 119.9760       469
 119.9980       485
 120.0200       459
 120.0420       429
 120.0640       474
 120.0860       430
 120.1080       423
 120.1300       454
 120.1520       469
 120.1740       464
 120.1960       447
 120.2180       432
 120.2400       467
 120.2620       434
 120.2840       444
 120.3060       447
 120.3280       477
 120.3500       409
 120.3720       460
 120.3940       442
 120.4160       457
 120.4380       469
 120.4600       471
 120.4820       504
 120.5040       464
 120.5260       456
 120.5480       489
 120.5700       478
 120.5920       470
 120.6140       484
 120.6360       456
 120.6580       456
 120.6800       442
 120.7020       448
 120.7240       443
 120.7460       494
 120.7680       428
 120.7900       450
 120.8120       476
 120.8340       481
 120.8560       500
 120.8780       463
 120.9000       492
 120.9220       459
 120.9440       485
 120.9660       467
 120.9880       503
 121.0100       510
 121.0320       439
 121.0540       485
 121.0760       443
 121.0980       468
 121.1200       475
 121.1420       476
 121.1640       506
 121.1860       471
 121.2080       420
 121.2300       494
 121.2520       478
 121.2740       471
 121.2960       487
 121.3180       482
 121.3400       456
 121.3620       443
 121.3840       489
 121.4060       463
 121.4280       493
 121.4500       456
 121.4720       517
 121.4940       451
 121.5160       506
 121.5380       466
 121.5600       495
 121.5820       500
 121.6040       469
 121.6260       485
 121.6480       464
 121.6700       470
 121.6920       440
 121.7140       465
 121.7360       474
 121.7580       464
 121.7800       481
 121.8020       467
 121.8240       457
 121.8460       507
 121.8680       458
 121.8900       473
 121.9120       464
 121.9340       512
 121.9560       480
 121.9780       506
 122.0000       442
