; C:\Data\Froehlich\Praktikum\2016-02-09_ignatiev\probe3.raw(Diffrac Plus V1.01 file) converted by XCH V1.0
_FILEVERSION=2
_SAMPLE='Probe3'
_SITE='II. Physikalisches Institut'
_ATTACHMENTS_CODE=0
_GONIOMETER_RADIUS=200.500000
_FIXED_DIVSLIT=2.000000
_FIXED_SAMPLESLIT=1.000000
_FIXED_DETSLIT=0.200000
_MONOCHROMATOR=0
; None
_THIN_FILM='N'
_BETA_FILTER='Y'
_FIXED_ANTISLIT=2.000000
_ANALYZER_CODE=0
; None
_DATEMEASURED='09-Feb-2016 23:43:25'
_WL_UNIT='A'
_WL1=1.540590
_WL2=1.544430
_WL3=1.392230
_WLRATIO=0.520000
_ANODE='Cu'
; (Data for Range number 1)
_DRIVE='COUPLED'
_STEPTIME=2.000000
_STEPSIZE=0.022000
_STEPMODE='C'
_START=12.000000
_THETA=6.000000
_2THETA=12.000000
_KHI=0.000000
_PHI=0.000000
_X=0.000000
_Y=0.000000
_Z=0.000000
_DIVERGENCE=0.000000
_ANTISCATTER=0.000000
_DETECTOR=1
; S.C.
_HV=1000.000000
_GAIN=80.000000
_LLD=0.550000
_ULD=1.310000
_DETECTORSLIT='unkn'
_AUX1=0.000000
_AUX2=0.000000
_AUX3=0.000000
_TIMESTARTED=13.000000
_ROTATION_SPEED=120.000000
_TEMP_RATE=-1.000000
_TEMP_DELAY=-1.000000
_KV=40
_MA=40
_RANGE_WL=1.540590
_3DPLANE=0
_2THETACOUNTS
  12.0000       216
  12.0220       243
  12.0440       243
  12.0660       248
  12.0880       235
  12.1100       245
  12.1320       266
  12.1540       271
  12.1760       246
  12.1980       239
  12.2200       254
  12.2420       257
  12.2640       276
  12.2860       254
  12.3080       235
  12.3300       244
  12.3520       270
  12.3740       249
  12.3960       218
  12.4180       247
  12.4400       245
  12.4620       235
  12.4840       222
  12.5060       212
  12.5280       244
  12.5500       237
  12.5720       233
  12.5940       237
  12.6160       283
  12.6380       244
  12.6600       212
  12.6820       243
  12.7040       254
  12.7260       249
  12.7480       244
  12.7700       249
  12.7920       231
  12.8140       246
  12.8360       255
  12.8580       254
  12.8800       254
  12.9020       215
  12.9240       240
  12.9460       258
  12.9680       257
  12.9900       252
  13.0120       255
  13.0340       245
  13.0560       205
  13.0780       241
  13.1000       225
  13.1220       254
  13.1440       244
  13.1660       242
  13.1880       255
  13.2100       232
  13.2320       258
  13.2540       235
  13.2760       246
  13.2980       248
  13.3200       247
  13.3420       245
  13.3640       255
  13.3860       243
  13.4080       251
  13.4300       237
  13.4520       261
  13.4740       241
  13.4960       248
  13.5180       276
  13.5400       229
  13.5620       232
  13.5840       271
  13.6060       247
  13.6280       267
  13.6500       256
  13.6720       250
  13.6940       270
  13.7160       263
  13.7380       234
  13.7600       244
  13.7820       234
  13.8040       265
  13.8260       254
  13.8480       255
  13.8700       243
  13.8920       241
  13.9140       268
  13.9360       266
  13.9580       286
  13.9800       276
  14.0020       255
  14.0240       244
  14.0460       258
  14.0680       236
  14.0900       251
  14.1120       228
  14.1340       237
  14.1560       264
  14.1780       264
  14.2000       261
  14.2220       229
  14.2440       239
  14.2660       250
  14.2880       255
  14.3100       232
  14.3320       252
  14.3540       251
  14.3760       281
  14.3980       228
  14.4200       259
  14.4420       244
  14.4640       264
  14.4860       249
  14.5080       250
  14.5300       225
  14.5520       269
  14.5740       254
  14.5960       264
  14.6180       281
  14.6400       274
  14.6620       248
  14.6840       259
  14.7060       254
  14.7280       267
  14.7500       237
  14.7720       281
  14.7940       246
  14.8160       265
  14.8380       261
  14.8600       232
  14.8820       282
  14.9040       255
  14.9260       257
  14.9480       272
  14.9700       219
  14.9920       237
  15.0140       269
  15.0360       235
  15.0580       241
  15.0800       265
  15.1020       273
  15.1240       267
  15.1460       303
  15.1680       254
  15.1900       233
  15.2120       260
  15.2340       235
  15.2560       239
  15.2780       253
  15.3000       235
  15.3220       250
  15.3440       253
  15.3660       245
  15.3880       257
  15.4100       286
  15.4320       240
  15.4540       246
  15.4760       255
  15.4980       251
  15.5200       248
  15.5420       250
  15.5640       207
  15.5860       276
  15.6080       251
  15.6300       244
  15.6520       264
  15.6740       264
  15.6960       246
  15.7180       249
  15.7400       274
  15.7620       224
  15.7840       259
  15.8060       265
  15.8280       259
  15.8500       250
  15.8720       247
  15.8940       267
  15.9160       228
  15.9380       254
  15.9600       249
  15.9820       275
  16.0040       280
  16.0260       258
  16.0480       263
  16.0700       239
  16.0920       248
  16.1140       229
  16.1360       258
  16.1580       274
  16.1800       272
  16.2020       289
  16.2240       258
  16.2460       267
  16.2680       246
  16.2900       271
  16.3120       298
  16.3340       270
  16.3560       247
  16.3780       292
  16.4000       268
  16.4220       289
  16.4440       255
  16.4660       291
  16.4880       264
  16.5100       218
  16.5320       272
  16.5540       294
  16.5760       278
  16.5980       294
  16.6200       282
  16.6420       255
  16.6640       258
  16.6860       296
  16.7080       269
  16.7300       266
  16.7520       283
  16.7740       240
  16.7960       261
  16.8180       276
  16.8400       280
  16.8620       275
  16.8840       259
  16.9060       267
  16.9280       266
  16.9500       295
  16.9720       290
  16.9940       294
  17.0160       266
  17.0380       260
  17.0600       281
  17.0820       241
  17.1040       274
  17.1260       294
  17.1480       266
  17.1700       230
  17.1920       261
  17.2140       270
  17.2360       268
  17.2580       267
  17.2800       277
  17.3020       276
  17.3240       289
  17.3460       290
  17.3680       287
  17.3900       280
  17.4120       271
  17.4340       283
  17.4560       265
  17.4780       290
  17.5000       297
  17.5220       258
  17.5440       268
  17.5660       292
  17.5880       282
  17.6100       294
  17.6320       298
  17.6540       297
  17.6760       309
  17.6980       297
  17.7200       285
  17.7420       269
  17.7640       268
  17.7860       271
  17.8080       311
  17.8300       297
  17.8520       287
  17.8740       286
  17.8960       298
  17.9180       276
  17.9400       272
  17.9620       306
  17.9840       274
  18.0060       275
  18.0280       291
  18.0500       262
  18.0720       279
  18.0940       321
  18.1160       281
  18.1380       299
  18.1600       267
  18.1820       296
  18.2040       303
  18.2260       282
  18.2480       299
  18.2700       285
  18.2920       295
  18.3140       282
  18.3360       321
  18.3580       277
  18.3800       304
  18.4020       290
  18.4240       277
  18.4460       285
  18.4680       297
  18.4900       293
  18.5120       265
  18.5340       278
  18.5560       298
  18.5780       286
  18.6000       325
  18.6220       288
  18.6440       309
  18.6660       272
  18.6880       271
  18.7100       265
  18.7320       298
  18.7540       292
  18.7760       316
  18.7980       283
  18.8200       306
  18.8420       280
  18.8640       295
  18.8860       323
  18.9080       308
  18.9300       304
  18.9520       274
  18.9740       266
  18.9960       276
  19.0180       287
  19.0400       285
  19.0620       303
  19.0840       308
  19.1060       308
  19.1280       299
  19.1500       291
  19.1720       308
  19.1940       272
  19.2160       297
  19.2380       302
  19.2600       293
  19.2820       322
  19.3040       314
  19.3260       315
  19.3480       305
  19.3700       313
  19.3920       301
  19.4140       298
  19.4360       298
  19.4580       315
  19.4800       355
  19.5020       331
  19.5240       297
  19.5460       316
  19.5680       306
  19.5900       336
  19.6120       286
  19.6340       299
  19.6560       320
  19.6780       316
  19.7000       336
  19.7220       297
  19.7440       325
  19.7660       335
  19.7880       312
  19.8100       327
  19.8320       336
  19.8540       312
  19.8760       310
  19.8980       360
  19.9200       329
  19.9420       307
  19.9640       320
  19.9860       309
  20.0080       348
  20.0300       316
  20.0520       308
  20.0740       330
  20.0960       359
  20.1180       333
  20.1400       366
  20.1620       351
  20.1840       338
  20.2060       326
  20.2280       330
  20.2500       340
  20.2720       348
  20.2940       348
  20.3160       303
  20.3380       335
  20.3600       346
  20.3820       318
  20.4040       348
  20.4260       327
  20.4480       338
  20.4700       360
  20.4920       347
  20.5140       312
  20.5360       335
  20.5580       326
  20.5800       373
  20.6020       339
  20.6240       356
  20.6460       320
  20.6680       318
  20.6900       302
  20.7120       326
  20.7340       325
  20.7560       355
  20.7780       315
  20.8000       311
  20.8220       331
  20.8440       370
  20.8660       349
  20.8880       361
  20.9100       321
  20.9320       348
  20.9540       341
  20.9760       377
  20.9980       348
  21.0200       359
  21.0420       341
  21.0640       354
  21.0860       328
  21.1080       379
  21.1300       390
  21.1520       361
  21.1740       366
  21.1960       341
  21.2180       381
  21.2400       351
  21.2620       329
  21.2840       364
  21.3060       343
  21.3280       347
  21.3500       384
  21.3720       307
  21.3940       366
  21.4160       350
  21.4380       331
  21.4600       331
  21.4820       370
  21.5040       372
  21.5260       373
  21.5480       356
  21.5700       344
  21.5920       355
  21.6140       336
  21.6360       380
  21.6580       361
  21.6800       352
  21.7020       346
  21.7240       386
  21.7460       341
  21.7680       391
  21.7900       353
  21.8120       363
  21.8340       357
  21.8560       361
  21.8780       327
  21.9000       365
  21.9220       374
  21.9440       347
  21.9660       357
  21.9880       350
  22.0100       376
  22.0320       368
  22.0540       389
  22.0760       346
  22.0980       383
  22.1200       335
  22.1420       375
  22.1640       379
  22.1860       429
  22.2080       359
  22.2300       362
  22.2520       378
  22.2740       334
  22.2960       360
  22.3180       374
  22.3400       382
  22.3620       365
  22.3840       342
  22.4060       334
  22.4280       344
  22.4500       384
  22.4720       340
  22.4940       339
  22.5160       368
  22.5380       358
  22.5600       371
  22.5820       366
  22.6040       368
  22.6260       384
  22.6480       324
  22.6700       357
  22.6920       373
  22.7140       354
  22.7360       396
  22.7580       395
  22.7800       359
  22.8020       352
  22.8240       379
  22.8460       362
  22.8680       387
  22.8900       352
  22.9120       402
  22.9340       349
  22.9560       389
  22.9780       357
  23.0000       386
  23.0220       344
  23.0440       355
  23.0660       385
  23.0880       328
  23.1100       392
  23.1320       359
  23.1540       369
  23.1760       390
  23.1980       350
  23.2200       362
  23.2420       387
  23.2640       390
  23.2860       378
  23.3080       369
  23.3300       369
  23.3520       386
  23.3740       375
  23.3960       359
  23.4180       383
  23.4400       411
  23.4620       373
  23.4840       440
  23.5060       383
  23.5280       405
  23.5500       413
  23.5720       434
  23.5940       412
  23.6160       379
  23.6380       438
  23.6600       435
  23.6820       436
  23.7040       415
  23.7260       404
  23.7480       379
  23.7700       406
  23.7920       430
  23.8140       413
  23.8360       427
  23.8580       461
  23.8800       450
  23.9020       425
  23.9240       420
  23.9460       407
  23.9680       393
  23.9900       424
  24.0120       411
  24.0340       436
  24.0560       424
  24.0780       403
  24.1000       409
  24.1220       448
  24.1440       423
  24.1660       402
  24.1880       406
  24.2100       388
  24.2320       409
  24.2540       403
  24.2760       379
  24.2980       425
  24.3200       351
  24.3420       396
  24.3640       366
  24.3860       369
  24.4080       400
  24.4300       419
  24.4520       392
  24.4740       406
  24.4960       379
  24.5180       372
  24.5400       361
  24.5620       383
  24.5840       386
  24.6060       359
  24.6280       373
  24.6500       379
  24.6720       353
  24.6940       418
  24.7160       355
  24.7380       373
  24.7600       374
  24.7820       382
  24.8040       382
  24.8260       375
  24.8480       382
  24.8700       358
  24.8920       374
  24.9140       379
  24.9360       413
  24.9580       388
  24.9800       411
  25.0020       372
  25.0240       402
  25.0460       339
  25.0680       357
  25.0900       356
  25.1120       381
  25.1340       393
  25.1560       359
  25.1780       384
  25.2000       345
  25.2220       374
  25.2440       387
  25.2660       401
  25.2880       376
  25.3100       360
  25.3320       333
  25.3540       355
  25.3760       381
  25.3980       354
  25.4200       357
  25.4420       336
  25.4640       345
  25.4860       394
  25.5080       359
  25.5300       348
  25.5520       379
  25.5740       368
  25.5960       340
  25.6180       340
  25.6400       368
  25.6620       367
  25.6840       331
  25.7060       367
  25.7280       331
  25.7500       317
  25.7720       356
  25.7940       305
  25.8160       313
  25.8380       329
  25.8600       364
  25.8820       379
  25.9040       356
  25.9260       403
  25.9480       366
  25.9700       396
  25.9920       378
  26.0140       353
  26.0360       361
  26.0580       359
  26.0800       330
  26.1020       355
  26.1240       351
  26.1460       357
  26.1680       352
  26.1900       343
  26.2120       366
  26.2340       336
  26.2560       352
  26.2780       336
  26.3000       344
  26.3220       363
  26.3440       345
  26.3660       363
  26.3880       367
  26.4100       356
  26.4320       392
  26.4540       369
  26.4760       339
  26.4980       329
  26.5200       353
  26.5420       362
  26.5640       331
  26.5860       380
  26.6080       327
  26.6300       348
  26.6520       335
  26.6740       337
  26.6960       377
  26.7180       343
  26.7400       339
  26.7620       368
  26.7840       351
  26.8060       360
  26.8280       366
  26.8500       360
  26.8720       366
  26.8940       363
  26.9160       381
  26.9380       345
  26.9600       370
  26.9820       324
  27.0040       364
  27.0260       339
  27.0480       321
  27.0700       354
  27.0920       343
  27.1140       344
  27.1360       337
  27.1580       318
  27.1800       341
  27.2020       360
  27.2240       348
  27.2460       346
  27.2680       312
  27.2900       353
  27.3120       319
  27.3340       328
  27.3560       342
  27.3780       383
  27.4000       386
  27.4220       361
  27.4440       342
  27.4660       309
  27.4880       313
  27.5100       344
  27.5320       345
  27.5540       336
  27.5760       340
  27.5980       336
  27.6200       381
  27.6420       349
  27.6640       320
  27.6860       341
  27.7080       330
  27.7300       337
  27.7520       336
  27.7740       315
  27.7960       344
  27.8180       329
  27.8400       339
  27.8620       322
  27.8840       310
  27.9060       360
  27.9280       331
  27.9500       312
  27.9720       338
  27.9940       336
  28.0160       339
  28.0380       353
  28.0600       350
  28.0820       333
  28.1040       330
  28.1260       316
  28.1480       347
  28.1700       327
  28.1920       365
  28.2140       361
  28.2360       332
  28.2580       327
  28.2800       335
  28.3020       330
  28.3240       316
  28.3460       344
  28.3680       346
  28.3900       341
  28.4120       384
  28.4340       345
  28.4560       314
  28.4780       340
  28.5000       334
  28.5220       322
  28.5440       319
  28.5660       317
  28.5880       339
  28.6100       347
  28.6320       340
  28.6540       317
  28.6760       323
  28.6980       303
  28.7200       343
  28.7420       341
  28.7640       316
  28.7860       364
  28.8080       312
  28.8300       303
  28.8520       309
  28.8740       316
  28.8960       350
  28.9180       333
  28.9400       360
  28.9620       326
  28.9840       316
  29.0060       323
  29.0280       314
  29.0500       340
  29.0720       352
  29.0940       338
  29.1160       299
  29.1380       320
  29.1600       303
  29.1820       346
  29.2040       293
  29.2260       332
  29.2480       327
  29.2700       354
  29.2920       317
  29.3140       332
  29.3360       341
  29.3580       350
  29.3800       335
  29.4020       334
  29.4240       289
  29.4460       332
  29.4680       346
  29.4900       333
  29.5120       334
  29.5340       320
  29.5560       330
  29.5780       291
  29.6000       317
  29.6220       316
  29.6440       293
  29.6660       323
  29.6880       300
  29.7100       334
  29.7320       316
  29.7540       299
  29.7760       327
  29.7980       298
  29.8200       320
  29.8420       324
  29.8640       357
  29.8860       327
  29.9080       329
  29.9300       332
  29.9520       327
  29.9740       331
  29.9960       314
  30.0180       338
  30.0400       334
  30.0620       329
  30.0840       317
  30.1060       347
  30.1280       335
  30.1500       303
  30.1720       348
  30.1940       316
  30.2160       326
  30.2380       305
  30.2600       312
  30.2820       290
  30.3040       294
  30.3260       339
  30.3480       308
  30.3700       297
  30.3920       342
  30.4140       315
  30.4360       327
  30.4580       323
  30.4800       279
  30.5020       311
  30.5240       285
  30.5460       308
  30.5680       284
  30.5900       283
  30.6120       312
  30.6340       312
  30.6560       310
  30.6780       313
  30.7000       310
  30.7220       373
  30.7440       321
  30.7660       305
  30.7880       329
  30.8100       332
  30.8320       309
  30.8540       323
  30.8760       310
  30.8980       336
  30.9200       346
  30.9420       337
  30.9640       300
  30.9860       287
  31.0080       294
  31.0300       331
  31.0520       299
  31.0740       335
  31.0960       341
  31.1180       306
  31.1400       308
  31.1620       305
  31.1840       299
  31.2060       307
  31.2280       323
  31.2500       297
  31.2720       349
  31.2940       341
  31.3160       309
  31.3380       310
  31.3600       275
  31.3820       296
  31.4040       324
  31.4260       297
  31.4480       307
  31.4700       299
  31.4920       324
  31.5140       316
  31.5360       307
  31.5580       303
  31.5800       310
  31.6020       324
  31.6240       295
  31.6460       317
  31.6680       322
  31.6900       305
  31.7120       303
  31.7340       301
  31.7560       314
  31.7780       279
  31.8000       337
  31.8220       347
  31.8440       304
  31.8660       308
  31.8880       312
  31.9100       306
  31.9320       302
  31.9540       296
  31.9760       321
  31.9980       298
  32.0200       315
  32.0420       315
  32.0640       309
  32.0860       269
  32.1080       310
  32.1300       291
  32.1520       289
  32.1740       302
  32.1960       286
  32.2180       298
  32.2400       290
  32.2620       277
  32.2840       293
  32.3060       278
  32.3280       297
  32.3500       325
  32.3720       326
  32.3940       283
  32.4160       297
  32.4380       295
  32.4600       289
  32.4820       306
  32.5040       282
  32.5260       315
  32.5480       295
  32.5700       289
  32.5920       292
  32.6140       297
  32.6360       293
  32.6580       281
  32.6800       291
  32.7020       309
  32.7240       277
  32.7460       280
  32.7680       309
  32.7900       289
  32.8120       282
  32.8340       302
  32.8560       274
  32.8780       297
  32.9000       315
  32.9220       289
  32.9440       312
  32.9660       279
  32.9880       271
  33.0100       307
  33.0320       288
  33.0540       286
  33.0760       297
  33.0980       310
  33.1200       269
  33.1420       321
  33.1640       241
  33.1860       324
  33.2080       288
  33.2300       254
  33.2520       288
  33.2740       313
  33.2960       308
  33.3180       320
  33.3400       297
  33.3620       306
  33.3840       270
  33.4060       325
  33.4280       313
  33.4500       300
  33.4720       303
  33.4940       300
  33.5160       278
  33.5380       281
  33.5600       289
  33.5820       325
  33.6040       279
  33.6260       329
  33.6480       307
  33.6700       297
  33.6920       360
  33.7140       335
  33.7360       307
  33.7580       322
  33.7800       302
  33.8020       300
  33.8240       304
  33.8460       325
  33.8680       362
  33.8900       342
  33.9120       295
  33.9340       314
  33.9560       364
  33.9780       343
  34.0000       339
  34.0220       368
  34.0440       354
  34.0660       310
  34.0880       335
  34.1100       356
  34.1320       307
  34.1540       312
  34.1760       349
  34.1980       306
  34.2200       316
  34.2420       315
  34.2640       291
  34.2860       269
  34.3080       292
  34.3300       299
  34.3520       265
  34.3740       308
  34.3960       288
  34.4180       294
  34.4400       270
  34.4620       290
  34.4840       300
  34.5060       268
  34.5280       305
  34.5500       288
  34.5720       286
  34.5940       273
  34.6160       282
  34.6380       303
  34.6600       292
  34.6820       267
  34.7040       272
  34.7260       254
  34.7480       283
  34.7700       272
  34.7920       279
  34.8140       241
  34.8360       247
  34.8580       300
  34.8800       275
  34.9020       272
  34.9240       243
  34.9460       301
  34.9680       259
  34.9900       285
  35.0120       295
  35.0340       279
  35.0560       246
  35.0780       281
  35.1000       245
  35.1220       268
  35.1440       283
  35.1660       229
  35.1880       260
  35.2100       249
  35.2320       284
  35.2540       274
  35.2760       277
  35.2980       249
  35.3200       250
  35.3420       271
  35.3640       258
  35.3860       246
  35.4080       262
  35.4300       244
  35.4520       276
  35.4740       270
  35.4960       264
  35.5180       239
  35.5400       247
  35.5620       259
  35.5840       246
  35.6060       257
  35.6280       261
  35.6500       236
  35.6720       273
  35.6940       260
  35.7160       253
  35.7380       278
  35.7600       236
  35.7820       268
  35.8040       249
  35.8260       251
  35.8480       276
  35.8700       267
  35.8920       267
  35.9140       259
  35.9360       244
  35.9580       261
  35.9800       271
  36.0020       229
  36.0240       263
  36.0460       265
  36.0680       246
  36.0900       260
  36.1120       227
  36.1340       244
  36.1560       239
  36.1780       240
  36.2000       251
  36.2220       257
  36.2440       251
  36.2660       255
  36.2880       264
  36.3100       246
  36.3320       243
  36.3540       257
  36.3760       253
  36.3980       282
  36.4200       267
  36.4420       252
  36.4640       260
  36.4860       261
  36.5080       231
  36.5300       238
  36.5520       230
  36.5740       272
  36.5960       249
  36.6180       266
  36.6400       251
  36.6620       244
  36.6840       253
  36.7060       250
  36.7280       258
  36.7500       238
  36.7720       239
  36.7940       236
  36.8160       235
  36.8380       258
  36.8600       250
  36.8820       238
  36.9040       241
  36.9260       249
  36.9480       244
  36.9700       232
  36.9920       249
  37.0140       253
  37.0360       239
  37.0580       251
  37.0800       237
  37.1020       256
  37.1240       256
  37.1460       246
  37.1680       223
  37.1900       261
  37.2120       216
  37.2340       240
  37.2560       252
  37.2780       255
  37.3000       237
  37.3220       257
  37.3440       265
  37.3660       276
  37.3880       223
  37.4100       206
  37.4320       253
  37.4540       275
  37.4760       252
  37.4980       279
  37.5200       243
  37.5420       260
  37.5640       248
  37.5860       259
  37.6080       234
  37.6300       253
  37.6520       226
  37.6740       253
  37.6960       279
  37.7180       254
  37.7400       256
  37.7620       254
  37.7840       259
  37.8060       259
  37.8280       241
  37.8500       258
  37.8720       236
  37.8940       225
  37.9160       239
  37.9380       250
  37.9600       235
  37.9820       233
  38.0040       232
  38.0260       248
  38.0480       276
  38.0700       261
  38.0920       245
  38.1140       260
  38.1360       246
  38.1580       243
  38.1800       252
  38.2020       231
  38.2240       263
  38.2460       279
  38.2680       280
  38.2900       251
  38.3120       258
  38.3340       288
  38.3560       256
  38.3780       283
  38.4000       241
  38.4220       252
  38.4440       254
  38.4660       258
  38.4880       255
  38.5100       272
  38.5320       253
  38.5540       248
  38.5760       219
  38.5980       238
  38.6200       253
  38.6420       244
  38.6640       259
  38.6860       288
  38.7080       217
  38.7300       226
  38.7520       237
  38.7740       206
  38.7960       219
  38.8180       228
  38.8400       243
  38.8620       212
  38.8840       244
  38.9060       280
  38.9280       269
  38.9500       234
  38.9720       234
  38.9940       259
  39.0160       240
  39.0380       259
  39.0600       250
  39.0820       234
  39.1040       253
  39.1260       260
  39.1480       238
  39.1700       255
  39.1920       246
  39.2140       207
  39.2360       226
  39.2580       224
  39.2800       269
  39.3020       229
  39.3240       229
  39.3460       257
  39.3680       234
  39.3900       237
  39.4120       240
  39.4340       244
  39.4560       256
  39.4780       250
  39.5000       228
  39.5220       257
  39.5440       262
  39.5660       221
  39.5880       247
  39.6100       228
  39.6320       230
  39.6540       237
  39.6760       230
  39.6980       240
  39.7200       214
  39.7420       229
  39.7640       258
  39.7860       229
  39.8080       252
  39.8300       225
  39.8520       216
  39.8740       246
  39.8960       207
  39.9180       270
  39.9400       234
  39.9620       258
  39.9840       256
  40.0060       252
  40.0280       242
  40.0500       262
  40.0720       266
  40.0940       284
  40.1160       244
  40.1380       226
  40.1600       242
  40.1820       247
  40.2040       264
  40.2260       255
  40.2480       225
  40.2700       233
  40.2920       246
  40.3140       245
  40.3360       277
  40.3580       266
  40.3800       276
  40.4020       265
  40.4240       246
  40.4460       255
  40.4680       247
  40.4900       283
  40.5120       280
  40.5340       264
  40.5560       277
  40.5780       255
  40.6000       246
  40.6220       267
  40.6440       263
  40.6660       289
  40.6880       257
  40.7100       248
  40.7320       263
  40.7540       289
  40.7760       262
  40.7980       286
  40.8200       296
  40.8420       236
  40.8640       265
  40.8860       273
  40.9080       252
  40.9300       267
  40.9520       270
  40.9740       271
  40.9960       290
  41.0180       287
  41.0400       267
  41.0620       299
  41.0840       322
  41.1060       305
  41.1280       302
  41.1500       291
  41.1720       289
  41.1940       308
  41.2160       296
  41.2380       322
  41.2600       354
  41.2820       317
  41.3040       322
  41.3260       353
  41.3480       399
  41.3700       389
  41.3920       379
  41.4140       458
  41.4360       425
  41.4580       471
  41.4800       454
  41.5020       533
  41.5240       558
  41.5460       564
  41.5680       668
  41.5900       696
  41.6120       745
  41.6340       821
  41.6560       936
  41.6780       980
  41.7000      1021
  41.7220      1216
  41.7440      1182
  41.7660      1308
  41.7880      1434
  41.8100      1441
  41.8320      1548
  41.8540      1687
  41.8760      1665
  41.8980      1653
  41.9200      1637
  41.9420      1499
  41.9640      1446
  41.9860      1347
  42.0080      1161
  42.0300      1155
  42.0520       929
  42.0740       877
  42.0960       756
  42.1180       690
  42.1400       649
  42.1620       576
  42.1840       554
  42.2060       500
  42.2280       465
  42.2500       422
  42.2720       414
  42.2940       377
  42.3160       374
  42.3380       344
  42.3600       330
  42.3820       350
  42.4040       332
  42.4260       278
  42.4480       307
  42.4700       331
  42.4920       279
  42.5140       283
  42.5360       261
  42.5580       304
  42.5800       294
  42.6020       275
  42.6240       273
  42.6460       295
  42.6680       276
  42.6900       279
  42.7120       264
  42.7340       243
  42.7560       278
  42.7780       238
  42.8000       223
  42.8220       257
  42.8440       248
  42.8660       274
  42.8880       289
  42.9100       231
  42.9320       252
  42.9540       257
  42.9760       242
  42.9980       236
  43.0200       256
  43.0420       245
  43.0640       255
  43.0860       265
  43.1080       252
  43.1300       204
  43.1520       261
  43.1740       248
  43.1960       263
  43.2180       233
  43.2400       262
  43.2620       258
  43.2840       245
  43.3060       260
  43.3280       298
  43.3500       220
  43.3720       234
  43.3940       250
  43.4160       229
  43.4380       234
  43.4600       230
  43.4820       226
  43.5040       226
  43.5260       233
  43.5480       256
  43.5700       233
  43.5920       270
  43.6140       245
  43.6360       273
  43.6580       259
  43.6800       299
  43.7020       278
  43.7240       266
  43.7460       258
  43.7680       252
  43.7900       267
  43.8120       280
  43.8340       256
  43.8560       246
  43.8780       252
  43.9000       247
  43.9220       260
  43.9440       260
  43.9660       220
  43.9880       256
  44.0100       231
  44.0320       246
  44.0540       240
  44.0760       247
  44.0980       245
  44.1200       268
  44.1420       262
  44.1640       210
  44.1860       241
  44.2080       238
  44.2300       251
  44.2520       226
  44.2740       233
  44.2960       215
  44.3180       250
  44.3400       241
  44.3620       238
  44.3840       244
  44.4060       262
  44.4280       264
  44.4500       236
  44.4720       259
  44.4940       244
  44.5160       233
  44.5380       248
  44.5600       242
  44.5820       242
  44.6040       251
  44.6260       245
  44.6480       236
  44.6700       265
  44.6920       256
  44.7140       250
  44.7360       233
  44.7580       227
  44.7800       249
  44.8020       222
  44.8240       213
  44.8460       230
  44.8680       244
  44.8900       248
  44.9120       233
  44.9340       241
  44.9560       252
  44.9780       233
  45.0000       239
  45.0220       231
  45.0440       248
  45.0660       260
  45.0880       233
  45.1100       242
  45.1320       218
  45.1540       204
  45.1760       238
  45.1980       254
  45.2200       249
  45.2420       240
  45.2640       238
  45.2860       246
  45.3080       271
  45.3300       248
  45.3520       228
  45.3740       245
  45.3960       239
  45.4180       238
  45.4400       230
  45.4620       261
  45.4840       228
  45.5060       222
  45.5280       246
  45.5500       237
  45.5720       236
  45.5940       227
  45.6160       238
  45.6380       273
  45.6600       248
  45.6820       217
  45.7040       243
  45.7260       238
  45.7480       216
  45.7700       224
  45.7920       238
  45.8140       209
  45.8360       236
  45.8580       231
  45.8800       259
  45.9020       252
  45.9240       261
  45.9460       234
  45.9680       219
  45.9900       223
  46.0120       228
  46.0340       257
  46.0560       220
  46.0780       216
  46.1000       255
  46.1220       214
  46.1440       239
  46.1660       250
  46.1880       246
  46.2100       217
  46.2320       229
  46.2540       242
  46.2760       232
  46.2980       244
  46.3200       260
  46.3420       227
  46.3640       239
  46.3860       216
  46.4080       216
  46.4300       245
  46.4520       243
  46.4740       262
  46.4960       257
  46.5180       217
  46.5400       199
  46.5620       249
  46.5840       256
  46.6060       222
  46.6280       249
  46.6500       255
  46.6720       248
  46.6940       190
  46.7160       235
  46.7380       262
  46.7600       252
  46.7820       253
  46.8040       235
  46.8260       237
  46.8480       243
  46.8700       269
  46.8920       245
  46.9140       258
  46.9360       244
  46.9580       239
  46.9800       242
  47.0020       241
  47.0240       239
  47.0460       255
  47.0680       233
  47.0900       241
  47.1120       260
  47.1340       283
  47.1560       253
  47.1780       241
  47.2000       231
  47.2220       277
  47.2440       275
  47.2660       247
  47.2880       241
  47.3100       262
  47.3320       278
  47.3540       253
  47.3760       287
  47.3980       245
  47.4200       257
  47.4420       254
  47.4640       266
  47.4860       288
  47.5080       259
  47.5300       234
  47.5520       262
  47.5740       272
  47.5960       275
  47.6180       263
  47.6400       276
  47.6620       259
  47.6840       304
  47.7060       258
  47.7280       295
  47.7500       301
  47.7720       273
  47.7940       293
  47.8160       280
  47.8380       297
  47.8600       309
  47.8820       320
  47.9040       306
  47.9260       309
  47.9480       322
  47.9700       314
  47.9920       393
  48.0140       351
  48.0360       362
  48.0580       392
  48.0800       396
  48.1020       403
  48.1240       425
  48.1460       447
  48.1680       498
  48.1900       507
  48.2120       459
  48.2340       482
  48.2560       528
  48.2780       595
  48.3000       543
  48.3220       608
  48.3440       657
  48.3660       702
  48.3880       672
  48.4100       679
  48.4320       744
  48.4540       785
  48.4760       806
  48.4980       845
  48.5200       851
  48.5420       870
  48.5640       865
  48.5860       848
  48.6080       870
  48.6300       877
  48.6520       829
  48.6740       856
  48.6960       862
  48.7180       808
  48.7400       791
  48.7620       757
  48.7840       704
  48.8060       738
  48.8280       620
  48.8500       664
  48.8720       603
  48.8940       535
  48.9160       538
  48.9380       512
  48.9600       449
  48.9820       431
  49.0040       411
  49.0260       411
  49.0480       399
  49.0700       370
  49.0920       341
  49.1140       345
  49.1360       323
  49.1580       326
  49.1800       329
  49.2020       292
  49.2240       311
  49.2460       338
  49.2680       293
  49.2900       284
  49.3120       263
  49.3340       279
  49.3560       265
  49.3780       281
  49.4000       261
  49.4220       268
  49.4440       273
  49.4660       269
  49.4880       266
  49.5100       248
  49.5320       257
  49.5540       236
  49.5760       260
  49.5980       274
  49.6200       230
  49.6420       238
  49.6640       264
  49.6860       245
  49.7080       226
  49.7300       251
  49.7520       239
  49.7740       252
  49.7960       218
  49.8180       255
  49.8400       248
  49.8620       268
  49.8840       247
  49.9060       218
  49.9280       261
  49.9500       219
  49.9720       244
  49.9940       259
  50.0160       225
  50.0380       242
  50.0600       222
  50.0820       228
  50.1040       222
  50.1260       203
  50.1480       250
  50.1700       272
  50.1920       218
  50.2140       267
  50.2360       207
  50.2580       202
  50.2800       223
  50.3020       269
  50.3240       237
  50.3460       225
  50.3680       207
  50.3900       227
  50.4120       246
  50.4340       220
  50.4560       240
  50.4780       248
  50.5000       247
  50.5220       231
  50.5440       234
  50.5660       240
  50.5880       207
  50.6100       214
  50.6320       225
  50.6540       220
  50.6760       229
  50.6980       219
  50.7200       226
  50.7420       241
  50.7640       231
  50.7860       218
  50.8080       253
  50.8300       234
  50.8520       217
  50.8740       246
  50.8960       220
  50.9180       206
  50.9400       226
  50.9620       244
  50.9840       229
  51.0060       203
  51.0280       233
  51.0500       258
  51.0720       230
  51.0940       244
  51.1160       244
  51.1380       260
  51.1600       256
  51.1820       227
  51.2040       217
  51.2260       209
  51.2480       234
  51.2700       189
  51.2920       234
  51.3140       236
  51.3360       220
  51.3580       211
  51.3800       227
  51.4020       232
  51.4240       211
  51.4460       228
  51.4680       243
  51.4900       207
  51.5120       222
  51.5340       229
  51.5560       244
  51.5780       221
  51.6000       235
  51.6220       217
  51.6440       233
  51.6660       245
  51.6880       242
  51.7100       239
  51.7320       248
  51.7540       231
  51.7760       223
  51.7980       236
  51.8200       242
  51.8420       216
  51.8640       225
  51.8860       213
  51.9080       227
  51.9300       252
  51.9520       233
  51.9740       240
  51.9960       235
  52.0180       234
  52.0400       247
  52.0620       235
  52.0840       227
  52.1060       225
  52.1280       222
  52.1500       229
  52.1720       245
  52.1940       236
  52.2160       221
  52.2380       228
  52.2600       222
  52.2820       224
  52.3040       234
  52.3260       266
  52.3480       213
  52.3700       214
  52.3920       235
  52.4140       232
  52.4360       236
  52.4580       209
  52.4800       197
  52.5020       226
  52.5240       244
  52.5460       233
  52.5680       220
  52.5900       225
  52.6120       206
  52.6340       251
  52.6560       200
  52.6780       235
  52.7000       209
  52.7220       186
  52.7440       208
  52.7660       234
  52.7880       246
  52.8100       214
  52.8320       245
  52.8540       211
  52.8760       220
  52.8980       242
  52.9200       221
  52.9420       236
  52.9640       230
  52.9860       222
  53.0080       249
  53.0300       232
  53.0520       234
  53.0740       232
  53.0960       231
  53.1180       215
  53.1400       240
  53.1620       217
  53.1840       239
  53.2060       221
  53.2280       266
  53.2500       255
  53.2720       231
  53.2940       204
  53.3160       223
  53.3380       230
  53.3600       212
  53.3820       220
  53.4040       227
  53.4260       210
  53.4480       227
  53.4700       232
  53.4920       235
  53.5140       218
  53.5360       215
  53.5580       230
  53.5800       233
  53.6020       262
  53.6240       211
  53.6460       231
  53.6680       208
  53.6900       239
  53.7120       229
  53.7340       194
  53.7560       230
  53.7780       220
  53.8000       240
  53.8220       224
  53.8440       214
  53.8660       234
  53.8880       236
  53.9100       239
  53.9320       205
  53.9540       239
  53.9760       231
  53.9980       262
  54.0200       226
  54.0420       250
  54.0640       228
  54.0860       248
  54.1080       246
  54.1300       241
  54.1520       244
  54.1740       237
  54.1960       242
  54.2180       242
  54.2400       256
  54.2620       232
  54.2840       235
  54.3060       262
  54.3280       255
  54.3500       254
  54.3720       236
  54.3940       244
  54.4160       268
  54.4380       241
  54.4600       272
  54.4820       264
  54.5040       265
  54.5260       262
  54.5480       221
  54.5700       263
  54.5920       239
  54.6140       267
  54.6360       282
  54.6580       272
  54.6800       270
  54.7020       259
  54.7240       274
  54.7460       290
  54.7680       271
  54.7900       303
  54.8120       293
  54.8340       239
  54.8560       303
  54.8780       309
  54.9000       252
  54.9220       268
  54.9440       281
  54.9660       288
  54.9880       282
  55.0100       282
  55.0320       275
  55.0540       251
  55.0760       252
  55.0980       242
  55.1200       242
  55.1420       270
  55.1640       271
  55.1860       282
  55.2080       236
  55.2300       275
  55.2520       231
  55.2740       239
  55.2960       240
  55.3180       224
  55.3400       232
  55.3620       269
  55.3840       233
  55.4060       241
  55.4280       219
  55.4500       248
  55.4720       240
  55.4940       245
  55.5160       245
  55.5380       252
  55.5600       255
  55.5820       237
  55.6040       225
  55.6260       240
  55.6480       242
  55.6700       214
  55.6920       253
  55.7140       229
  55.7360       246
  55.7580       251
  55.7800       238
  55.8020       258
  55.8240       217
  55.8460       249
  55.8680       250
  55.8900       230
  55.9120       242
  55.9340       232
  55.9560       224
  55.9780       227
  56.0000       219
  56.0220       213
  56.0440       211
  56.0660       230
  56.0880       212
  56.1100       232
  56.1320       194
  56.1540       237
  56.1760       226
  56.1980       261
  56.2200       238
  56.2420       225
  56.2640       245
  56.2860       249
  56.3080       265
  56.3300       236
  56.3520       256
  56.3740       215
  56.3960       253
  56.4180       234
  56.4400       263
  56.4620       260
  56.4840       238
  56.5060       216
  56.5280       234
  56.5500       259
  56.5720       222
  56.5940       242
  56.6160       222
  56.6380       216
  56.6600       220
  56.6820       233
  56.7040       226
  56.7260       228
  56.7480       237
  56.7700       243
  56.7920       247
  56.8140       228
  56.8360       248
  56.8580       241
  56.8800       238
  56.9020       252
  56.9240       222
  56.9460       225
  56.9680       224
  56.9900       240
  57.0120       247
  57.0340       247
  57.0560       237
  57.0780       213
  57.1000       229
  57.1220       270
  57.1440       267
  57.1660       256
  57.1880       200
  57.2100       236
  57.2320       241
  57.2540       243
  57.2760       243
  57.2980       236
  57.3200       220
  57.3420       217
  57.3640       224
  57.3860       238
  57.4080       243
  57.4300       245
  57.4520       218
  57.4740       226
  57.4960       236
  57.5180       209
  57.5400       212
  57.5620       213
  57.5840       234
  57.6060       236
  57.6280       225
  57.6500       228
  57.6720       235
  57.6940       229
  57.7160       241
  57.7380       265
  57.7600       226
  57.7820       227
  57.8040       227
  57.8260       217
  57.8480       212
  57.8700       222
  57.8920       253
  57.9140       264
  57.9360       247
  57.9580       215
  57.9800       225
  58.0020       242
  58.0240       239
  58.0460       235
  58.0680       244
  58.0900       222
  58.1120       200
  58.1340       257
  58.1560       228
  58.1780       244
  58.2000       222
  58.2220       245
  58.2440       247
  58.2660       256
  58.2880       257
  58.3100       238
  58.3320       207
  58.3540       248
  58.3760       233
  58.3980       243
  58.4200       271
  58.4420       259
  58.4640       238
  58.4860       234
  58.5080       239
  58.5300       206
  58.5520       257
  58.5740       206
  58.5960       233
  58.6180       237
  58.6400       217
  58.6620       243
  58.6840       232
  58.7060       216
  58.7280       226
  58.7500       239
  58.7720       236
  58.7940       231
  58.8160       206
  58.8380       227
  58.8600       236
  58.8820       240
  58.9040       228
  58.9260       205
  58.9480       235
  58.9700       229
  58.9920       248
  59.0140       227
  59.0360       253
  59.0580       230
  59.0800       247
  59.1020       266
  59.1240       241
  59.1460       230
  59.1680       246
  59.1900       242
  59.2120       233
  59.2340       215
  59.2560       218
  59.2780       244
  59.3000       267
  59.3220       266
  59.3440       256
  59.3660       279
  59.3880       251
  59.4100       243
  59.4320       252
  59.4540       238
  59.4760       253
  59.4980       219
  59.5200       253
  59.5420       225
  59.5640       227
  59.5860       228
  59.6080       220
  59.6300       234
  59.6520       244
  59.6740       221
  59.6960       234
  59.7180       228
  59.7400       239
  59.7620       247
  59.7840       239
  59.8060       252
  59.8280       209
  59.8500       224
  59.8720       258
  59.8940       241
  59.9160       228
  59.9380       218
  59.9600       242
  59.9820       246
  60.0040       250
  60.0260       221
  60.0480       224
  60.0700       227
  60.0920       254
  60.1140       221
  60.1360       271
  60.1580       248
  60.1800       241
  60.2020       273
  60.2240       246
  60.2460       245
  60.2680       260
  60.2900       259
  60.3120       240
  60.3340       226
  60.3560       229
  60.3780       286
  60.4000       277
  60.4220       281
  60.4440       267
  60.4660       288
  60.4880       252
  60.5100       283
  60.5320       262
  60.5540       271
  60.5760       264
  60.5980       272
  60.6200       258
  60.6420       282
  60.6640       282
  60.6860       252
  60.7080       268
  60.7300       269
  60.7520       275
  60.7740       281
  60.7960       284
  60.8180       253
  60.8400       270
  60.8620       226
  60.8840       272
  60.9060       257
  60.9280       265
  60.9500       269
  60.9720       263
  60.9940       258
  61.0160       263
  61.0380       281
  61.0600       228
  61.0820       223
  61.1040       271
  61.1260       229
  61.1480       237
  61.1700       223
  61.1920       237
  61.2140       230
  61.2360       237
  61.2580       232
  61.2800       247
  61.3020       228
  61.3240       235
  61.3460       240
  61.3680       244
  61.3900       228
  61.4120       242
  61.4340       231
  61.4560       218
  61.4780       213
  61.5000       238
  61.5220       243
  61.5440       249
  61.5660       236
  61.5880       229
  61.6100       273
  61.6320       225
  61.6540       250
  61.6760       215
  61.6980       241
  61.7200       217
  61.7420       240
  61.7640       233
  61.7860       248
  61.8080       204
  61.8300       232
  61.8520       240
  61.8740       245
  61.8960       201
  61.9180       228
  61.9400       240
  61.9620       219
  61.9840       237
  62.0060       258
  62.0280       236
  62.0500       238
  62.0720       229
  62.0940       220
  62.1160       267
  62.1380       240
  62.1600       241
  62.1820       231
  62.2040       256
  62.2260       262
  62.2480       231
  62.2700       217
  62.2920       239
  62.3140       226
  62.3360       238
  62.3580       245
  62.3800       240
  62.4020       215
  62.4240       228
  62.4460       218
  62.4680       230
  62.4900       250
  62.5120       230
  62.5340       236
  62.5560       219
  62.5780       238
  62.6000       215
  62.6220       247
  62.6440       235
  62.6660       247
  62.6880       228
  62.7100       228
  62.7320       247
  62.7540       248
  62.7760       238
  62.7980       282
  62.8200       227
  62.8420       229
  62.8640       240
  62.8860       216
  62.9080       231
  62.9300       237
  62.9520       246
  62.9740       245
  62.9960       238
  63.0180       238
  63.0400       219
  63.0620       244
  63.0840       240
  63.1060       238
  63.1280       237
  63.1500       234
  63.1720       234
  63.1940       244
  63.2160       205
  63.2380       217
  63.2600       228
  63.2820       240
  63.3040       218
  63.3260       223
  63.3480       242
  63.3700       215
  63.3920       248
  63.4140       216
  63.4360       235
  63.4580       220
  63.4800       248
  63.5020       226
  63.5240       255
  63.5460       258
  63.5680       229
  63.5900       261
  63.6120       249
  63.6340       220
  63.6560       218
  63.6780       254
  63.7000       254
  63.7220       210
  63.7440       241
  63.7660       243
  63.7880       243
  63.8100       248
  63.8320       235
  63.8540       244
  63.8760       250
  63.8980       247
  63.9200       257
  63.9420       232
  63.9640       278
  63.9860       233
  64.0080       238
  64.0300       233
  64.0520       221
  64.0740       238
  64.0960       253
  64.1180       218
  64.1400       233
  64.1620       237
  64.1840       233
  64.2060       242
  64.2280       227
  64.2500       277
  64.2720       246
  64.2940       262
  64.3160       243
  64.3380       258
  64.3600       234
  64.3820       233
  64.4040       225
  64.4260       241
  64.4480       220
  64.4700       259
  64.4920       244
  64.5140       248
  64.5360       264
  64.5580       268
  64.5800       273
  64.6020       268
  64.6240       254
  64.6460       255
  64.6680       242
  64.6900       259
  64.7120       235
  64.7340       269
  64.7560       237
  64.7780       216
  64.8000       243
  64.8220       237
  64.8440       229
  64.8660       221
  64.8880       229
  64.9100       232
  64.9320       203
  64.9540       244
  64.9760       210
  64.9980       237
  65.0200       226
  65.0420       250
  65.0640       233
  65.0860       244
  65.1080       228
  65.1300       218
  65.1520       214
  65.1740       239
  65.1960       228
  65.2180       228
  65.2400       238
  65.2620       220
  65.2840       223
  65.3060       234
  65.3280       229
  65.3500       226
  65.3720       226
  65.3940       224
  65.4160       220
  65.4380       229
  65.4600       226
  65.4820       250
  65.5040       243
  65.5260       244
  65.5480       231
  65.5700       242
  65.5920       228
  65.6140       233
  65.6360       224
  65.6580       237
  65.6800       203
  65.7020       233
  65.7240       232
  65.7460       215
  65.7680       237
  65.7900       226
  65.8120       259
  65.8340       212
  65.8560       243
  65.8780       271
  65.9000       233
  65.9220       244
  65.9440       224
  65.9660       242
  65.9880       241
  66.0100       245
  66.0320       246
  66.0540       213
  66.0760       255
  66.0980       224
  66.1200       214
  66.1420       228
  66.1640       214
  66.1860       231
  66.2080       229
  66.2300       231
  66.2520       245
  66.2740       221
  66.2960       225
  66.3180       262
  66.3400       221
  66.3620       225
  66.3840       218
  66.4060       209
  66.4280       235
  66.4500       238
  66.4720       215
  66.4940       220
  66.5160       265
  66.5380       214
  66.5600       227
  66.5820       233
  66.6040       237
  66.6260       225
  66.6480       230
  66.6700       249
  66.6920       192
  66.7140       215
  66.7360       250
  66.7580       208
  66.7800       239
  66.8020       230
  66.8240       213
  66.8460       247
  66.8680       226
  66.8900       265
  66.9120       244
  66.9340       247
  66.9560       252
  66.9780       238
  67.0000       249
  67.0220       248
  67.0440       223
  67.0660       248
  67.0880       211
  67.1100       218
  67.1320       234
  67.1540       215
  67.1760       228
  67.1980       250
  67.2200       217
  67.2420       232
  67.2640       244
  67.2860       218
  67.3080       227
  67.3300       252
  67.3520       250
  67.3740       240
  67.3960       231
  67.4180       209
  67.4400       223
  67.4620       232
  67.4840       218
  67.5060       236
  67.5280       220
  67.5500       227
  67.5720       213
  67.5940       267
  67.6160       221
  67.6380       233
  67.6600       235
  67.6820       267
  67.7040       245
  67.7260       248
  67.7480       228
  67.7700       213
  67.7920       223
  67.8140       233
  67.8360       224
  67.8580       230
  67.8800       223
  67.9020       210
  67.9240       257
  67.9460       227
  67.9680       223
  67.9900       235
  68.0120       234
  68.0340       219
  68.0560       223
  68.0780       222
  68.1000       175
  68.1220       218
  68.1440       212
  68.1660       236
  68.1880       228
  68.2100       222
  68.2320       253
  68.2540       193
  68.2760       224
  68.2980       200
  68.3200       244
  68.3420       247
  68.3640       257
  68.3860       236
  68.4080       243
  68.4300       237
  68.4520       258
  68.4740       246
  68.4960       237
  68.5180       222
  68.5400       200
  68.5620       233
  68.5840       264
  68.6060       225
  68.6280       212
  68.6500       227
  68.6720       268
  68.6940       234
  68.7160       224
  68.7380       240
  68.7600       231
  68.7820       248
  68.8040       248
  68.8260       242
  68.8480       241
  68.8700       209
  68.8920       249
  68.9140       247
  68.9360       223
  68.9580       233
  68.9800       217
  69.0020       227
  69.0240       264
  69.0460       224
  69.0680       240
  69.0900       227
  69.1120       239
  69.1340       223
  69.1560       210
  69.1780       227
  69.2000       207
  69.2220       251
  69.2440       214
  69.2660       272
  69.2880       244
  69.3100       226
  69.3320       235
  69.3540       225
  69.3760       240
  69.3980       218
  69.4200       211
  69.4420       230
  69.4640       265
  69.4860       255
  69.5080       242
  69.5300       242
  69.5520       242
  69.5740       233
  69.5960       220
  69.6180       242
  69.6400       248
  69.6620       250
  69.6840       231
  69.7060       241
  69.7280       238
  69.7500       272
  69.7720       235
  69.7940       218
  69.8160       237
  69.8380       227
  69.8600       249
  69.8820       249
  69.9040       246
  69.9260       247
  69.9480       204
  69.9700       246
  69.9920       272
  70.0140       244
  70.0360       244
  70.0580       238
  70.0800       253
  70.1020       226
  70.1240       236
  70.1460       242
  70.1680       249
  70.1900       257
  70.2120       261
  70.2340       254
  70.2560       279
  70.2780       257
  70.3000       260
  70.3220       288
  70.3440       242
  70.3660       253
  70.3880       259
  70.4100       261
  70.4320       244
  70.4540       282
  70.4760       264
  70.4980       268
  70.5200       251
  70.5420       258
  70.5640       268
  70.5860       285
  70.6080       253
  70.6300       281
  70.6520       280
  70.6740       323
  70.6960       305
  70.7180       269
  70.7400       323
  70.7620       329
  70.7840       333
  70.8060       345
  70.8280       312
  70.8500       372
  70.8720       376
  70.8940       360
  70.9160       378
  70.9380       375
  70.9600       382
  70.9820       420
  71.0040       400
  71.0260       425
  71.0480       413
  71.0700       479
  71.0920       468
  71.1140       477
  71.1360       457
  71.1580       497
  71.1800       511
  71.2020       455
  71.2240       480
  71.2460       489
  71.2680       479
  71.2900       457
  71.3120       427
  71.3340       424
  71.3560       454
  71.3780       402
  71.4000       421
  71.4220       390
  71.4440       386
  71.4660       358
  71.4880       373
  71.5100       338
  71.5320       319
  71.5540       359
  71.5760       324
  71.5980       303
  71.6200       291
  71.6420       276
  71.6640       292
  71.6860       286
  71.7080       278
  71.7300       246
  71.7520       261
  71.7740       257
  71.7960       248
  71.8180       229
  71.8400       259
  71.8620       244
  71.8840       250
  71.9060       278
  71.9280       248
  71.9500       252
  71.9720       270
  71.9940       231
  72.0160       246
  72.0380       256
  72.0600       223
  72.0820       236
  72.1040       249
  72.1260       241
  72.1480       249
  72.1700       242
  72.1920       290
  72.2140       240
  72.2360       237
  72.2580       215
  72.2800       251
  72.3020       233
  72.3240       231
  72.3460       238
  72.3680       239
  72.3900       251
  72.4120       242
  72.4340       242
  72.4560       246
  72.4780       231
  72.5000       233
  72.5220       222
  72.5440       220
  72.5660       212
  72.5880       240
  72.6100       225
  72.6320       219
  72.6540       239
  72.6760       244
  72.6980       239
  72.7200       219
  72.7420       224
  72.7640       243
  72.7860       206
  72.8080       212
  72.8300       236
  72.8520       231
  72.8740       234
  72.8960       248
  72.9180       263
  72.9400       236
  72.9620       258
  72.9840       237
  73.0060       225
  73.0280       252
  73.0500       214
  73.0720       248
  73.0940       238
  73.1160       204
  73.1380       212
  73.1600       243
  73.1820       228
  73.2040       240
  73.2260       217
  73.2480       247
  73.2700       226
  73.2920       231
  73.3140       220
  73.3360       245
  73.3580       253
  73.3800       222
  73.4020       237
  73.4240       221
  73.4460       228
  73.4680       224
  73.4900       239
  73.5120       207
  73.5340       191
  73.5560       243
  73.5780       245
  73.6000       224
  73.6220       216
  73.6440       205
  73.6660       214
  73.6880       228
  73.7100       235
  73.7320       196
  73.7540       215
  73.7760       195
  73.7980       236
  73.8200       240
  73.8420       226
  73.8640       224
  73.8860       238
  73.9080       234
  73.9300       238
  73.9520       227
  73.9740       232
  73.9960       236
  74.0180       229
  74.0400       236
  74.0620       232
  74.0840       200
  74.1060       227
  74.1280       214
  74.1500       245
  74.1720       218
  74.1940       249
  74.2160       220
  74.2380       215
  74.2600       207
  74.2820       226
  74.3040       256
  74.3260       234
  74.3480       246
  74.3700       210
  74.3920       215
  74.4140       237
  74.4360       237
  74.4580       229
  74.4800       240
  74.5020       227
  74.5240       216
  74.5460       234
  74.5680       218
  74.5900       219
  74.6120       260
  74.6340       256
  74.6560       220
  74.6780       245
  74.7000       217
  74.7220       234
  74.7440       252
  74.7660       238
  74.7880       221
  74.8100       259
  74.8320       208
  74.8540       227
  74.8760       231
  74.8980       245
  74.9200       222
  74.9420       258
  74.9640       239
  74.9860       251
  75.0080       221
  75.0300       229
  75.0520       244
  75.0740       238
  75.0960       219
  75.1180       219
  75.1400       221
  75.1620       219
  75.1840       257
  75.2060       233
  75.2280       250
  75.2500       230
  75.2720       258
  75.2940       237
  75.3160       213
  75.3380       252
  75.3600       225
  75.3820       206
  75.4040       242
  75.4260       243
  75.4480       245
  75.4700       225
  75.4920       242
  75.5140       236
  75.5360       227
  75.5580       219
  75.5800       218
  75.6020       248
  75.6240       214
  75.6460       236
  75.6680       253
  75.6900       251
  75.7120       227
  75.7340       229
  75.7560       249
  75.7780       228
  75.8000       253
  75.8220       250
  75.8440       251
  75.8660       247
  75.8880       222
  75.9100       273
  75.9320       252
  75.9540       206
  75.9760       258
  75.9980       256
  76.0200       252
  76.0420       265
  76.0640       237
  76.0860       301
  76.1080       270
  76.1300       261
  76.1520       259
  76.1740       279
  76.1960       246
  76.2180       244
  76.2400       284
  76.2620       262
  76.2840       254
  76.3060       229
  76.3280       251
  76.3500       260
  76.3720       275
  76.3940       257
  76.4160       282
  76.4380       277
  76.4600       271
  76.4820       262
  76.5040       272
  76.5260       259
  76.5480       225
  76.5700       286
  76.5920       229
  76.6140       244
  76.6360       237
  76.6580       265
  76.6800       248
  76.7020       255
  76.7240       250
  76.7460       241
  76.7680       253
  76.7900       225
  76.8120       242
  76.8340       225
  76.8560       232
  76.8780       238
  76.9000       224
  76.9220       224
  76.9440       230
  76.9660       230
  76.9880       224
  77.0100       218
  77.0320       247
  77.0540       229
  77.0760       223
  77.0980       233
  77.1200       215
  77.1420       232
  77.1640       203
  77.1860       227
  77.2080       244
  77.2300       213
  77.2520       248
  77.2740       270
  77.2960       250
  77.3180       220
  77.3400       232
  77.3620       240
  77.3840       258
  77.4060       232
  77.4280       221
  77.4500       218
  77.4720       243
  77.4940       241
  77.5160       244
  77.5380       249
  77.5600       239
  77.5820       230
  77.6040       255
  77.6260       253
  77.6480       234
  77.6700       205
  77.6920       244
  77.7140       232
  77.7360       233
  77.7580       249
  77.7800       215
  77.8020       223
  77.8240       220
  77.8460       227
  77.8680       262
  77.8900       243
  77.9120       226
  77.9340       230
  77.9560       234
  77.9780       226
  78.0000       248
  78.0220       212
  78.0440       215
  78.0660       226
  78.0880       236
  78.1100       204
  78.1320       254
  78.1540       227
  78.1760       211
  78.1980       258
  78.2200       252
  78.2420       220
  78.2640       240
  78.2860       222
  78.3080       242
  78.3300       232
  78.3520       211
  78.3740       217
  78.3960       231
  78.4180       233
  78.4400       246
  78.4620       210
  78.4840       240
  78.5060       222
  78.5280       195
  78.5500       210
  78.5720       233
  78.5940       220
  78.6160       229
  78.6380       247
  78.6600       197
  78.6820       233
  78.7040       223
  78.7260       256
  78.7480       233
  78.7700       236
  78.7920       204
  78.8140       228
  78.8360       214
  78.8580       216
  78.8800       225
  78.9020       234
  78.9240       219
  78.9460       233
  78.9680       238
  78.9900       224
  79.0120       223
  79.0340       230
  79.0560       245
  79.0780       234
  79.1000       211
  79.1220       217
  79.1440       241
  79.1660       230
  79.1880       228
  79.2100       233
  79.2320       215
  79.2540       224
  79.2760       224
  79.2980       201
  79.3200       219
  79.3420       217
  79.3640       202
  79.3860       233
  79.4080       231
  79.4300       205
  79.4520       249
  79.4740       214
  79.4960       236
  79.5180       232
  79.5400       194
  79.5620       234
  79.5840       235
  79.6060       234
  79.6280       208
  79.6500       225
  79.6720       213
  79.6940       214
  79.7160       249
  79.7380       230
  79.7600       257
  79.7820       242
  79.8040       217
  79.8260       211
  79.8480       228
  79.8700       201
  79.8920       244
  79.9140       237
  79.9360       247
  79.9580       225
  79.9800       220
  80.0020       224
  80.0240       222
  80.0460       212
  80.0680       228
  80.0900       231
  80.1120       231
  80.1340       220
  80.1560       221
  80.1780       252
  80.2000       241
  80.2220       227
  80.2440       231
  80.2660       245
  80.2880       225
  80.3100       241
  80.3320       215
  80.3540       229
  80.3760       204
  80.3980       216
  80.4200       251
  80.4420       231
  80.4640       231
  80.4860       234
  80.5080       221
  80.5300       239
  80.5520       221
  80.5740       229
  80.5960       266
  80.6180       221
  80.6400       206
  80.6620       225
  80.6840       225
  80.7060       222
  80.7280       251
  80.7500       243
  80.7720       225
  80.7940       239
  80.8160       253
  80.8380       236
  80.8600       240
  80.8820       242
  80.9040       241
  80.9260       218
  80.9480       252
  80.9700       242
  80.9920       262
  81.0140       262
  81.0360       228
  81.0580       246
  81.0800       273
  81.1020       233
  81.1240       258
  81.1460       246
  81.1680       241
  81.1900       243
  81.2120       238
  81.2340       243
  81.2560       244
  81.2780       229
  81.3000       222
  81.3220       234
  81.3440       259
  81.3660       269
  81.3880       256
  81.4100       238
  81.4320       265
  81.4540       254
  81.4760       219
  81.4980       238
  81.5200       210
  81.5420       240
  81.5640       248
  81.5860       233
  81.6080       229
  81.6300       256
  81.6520       269
  81.6740       235
  81.6960       205
  81.7180       209
  81.7400       250
  81.7620       222
  81.7840       216
  81.8060       252
  81.8280       227
  81.8500       243
  81.8720       228
  81.8940       213
  81.9160       241
  81.9380       232
  81.9600       229
  81.9820       249
  82.0040       236
  82.0260       208
  82.0480       235
  82.0700       217
  82.0920       251
  82.1140       242
  82.1360       219
  82.1580       207
  82.1800       246
  82.2020       264
  82.2240       223
  82.2460       267
  82.2680       238
  82.2900       261
  82.3120       215
  82.3340       227
  82.3560       234
  82.3780       225
  82.4000       253
  82.4220       217
  82.4440       218
  82.4660       228
  82.4880       231
  82.5100       206
  82.5320       239
  82.5540       235
  82.5760       225
  82.5980       220
  82.6200       238
  82.6420       209
  82.6640       249
  82.6860       207
  82.7080       219
  82.7300       217
  82.7520       211
  82.7740       230
  82.7960       228
  82.8180       211
  82.8400       239
  82.8620       240
  82.8840       205
  82.9060       237
  82.9280       236
  82.9500       204
  82.9720       224
  82.9940       223
  83.0160       240
  83.0380       250
  83.0600       251
  83.0820       213
  83.1040       192
  83.1260       253
  83.1480       234
  83.1700       233
  83.1920       227
  83.2140       234
  83.2360       233
  83.2580       245
  83.2800       222
  83.3020       225
  83.3240       252
  83.3460       219
  83.3680       211
  83.3900       220
  83.4120       220
  83.4340       226
  83.4560       233
  83.4780       239
  83.5000       210
  83.5220       253
  83.5440       246
  83.5660       241
  83.5880       235
  83.6100       224
  83.6320       204
  83.6540       230
  83.6760       230
  83.6980       263
  83.7200       195
  83.7420       232
  83.7640       218
  83.7860       215
  83.8080       234
  83.8300       242
  83.8520       200
  83.8740       246
  83.8960       224
  83.9180       200
  83.9400       229
  83.9620       217
  83.9840       245
  84.0060       244
  84.0280       225
  84.0500       247
  84.0720       204
  84.0940       243
  84.1160       246
  84.1380       254
  84.1600       225
  84.1820       211
  84.2040       234
  84.2260       226
  84.2480       257
  84.2700       233
  84.2920       220
  84.3140       236
  84.3360       214
  84.3580       246
  84.3800       262
  84.4020       249
  84.4240       267
  84.4460       239
  84.4680       230
  84.4900       256
  84.5120       247
  84.5340       242
  84.5560       261
  84.5780       222
  84.6000       264
  84.6220       273
  84.6440       252
  84.6660       271
  84.6880       232
  84.7100       255
  84.7320       251
  84.7540       238
  84.7760       247
  84.7980       228
  84.8200       268
  84.8420       258
  84.8640       238
  84.8860       245
  84.9080       262
  84.9300       279
  84.9520       286
  84.9740       292
  84.9960       276
  85.0180       287
  85.0400       289
  85.0620       281
  85.0840       283
  85.1060       289
  85.1280       293
  85.1500       288
  85.1720       305
  85.1940       302
  85.2160       273
  85.2380       296
  85.2600       296
  85.2820       331
  85.3040       321
  85.3260       339
  85.3480       341
  85.3700       321
  85.3920       325
  85.4140       331
  85.4360       366
  85.4580       365
  85.4800       359
  85.5020       375
  85.5240       422
  85.5460       386
  85.5680       389
  85.5900       419
  85.6120       407
  85.6340       409
  85.6560       418
  85.6780       406
  85.7000       440
  85.7220       437
  85.7440       430
  85.7660       526
  85.7880       479
  85.8100       494
  85.8320       493
  85.8540       489
  85.8760       481
  85.8980       480
  85.9200       496
  85.9420       478
  85.9640       501
  85.9860       537
  86.0080       519
  86.0300       555
  86.0520       485
  86.0740       497
  86.0960       486
  86.1180       457
  86.1400       461
  86.1620       471
  86.1840       441
  86.2060       435
  86.2280       477
  86.2500       414
  86.2720       401
  86.2940       409
  86.3160       416
  86.3380       395
  86.3600       362
  86.3820       345
  86.4040       380
  86.4260       360
  86.4480       330
  86.4700       312
  86.4920       342
  86.5140       338
  86.5360       339
  86.5580       280
  86.5800       325
  86.6020       276
  86.6240       289
  86.6460       277
  86.6680       286
  86.6900       287
  86.7120       257
  86.7340       291
  86.7560       273
  86.7780       279
  86.8000       264
  86.8220       232
  86.8440       266
  86.8660       230
  86.8880       268
  86.9100       230
  86.9320       266
  86.9540       252
  86.9760       249
  86.9980       254
  87.0200       253
  87.0420       251
  87.0640       250
  87.0860       241
  87.1080       242
  87.1300       218
  87.1520       255
  87.1740       206
  87.1960       244
  87.2180       219
  87.2400       222
  87.2620       213
  87.2840       252
  87.3060       235
  87.3280       247
  87.3500       232
  87.3720       235
  87.3940       223
  87.4160       248
  87.4380       225
  87.4600       249
  87.4820       244
  87.5040       229
  87.5260       204
  87.5480       227
  87.5700       238
  87.5920       237
  87.6140       233
  87.6360       239
  87.6580       237
  87.6800       256
  87.7020       219
  87.7240       194
  87.7460       206
  87.7680       239
  87.7900       242
  87.8120       238
  87.8340       231
  87.8560       231
  87.8780       207
  87.9000       258
  87.9220       233
  87.9440       246
  87.9660       238
  87.9880       231
  88.0100       185
  88.0320       224
  88.0540       222
  88.0760       229
  88.0980       222
  88.1200       206
  88.1420       216
  88.1640       206
  88.1860       225
  88.2080       231
  88.2300       217
  88.2520       209
  88.2740       238
  88.2960       224
  88.3180       191
  88.3400       239
  88.3620       240
  88.3840       230
  88.4060       216
  88.4280       206
  88.4500       221
  88.4720       219
  88.4940       243
  88.5160       228
  88.5380       215
  88.5600       232
  88.5820       240
  88.6040       197
  88.6260       228
  88.6480       239
  88.6700       202
  88.6920       238
  88.7140       211
  88.7360       198
  88.7580       240
  88.7800       214
  88.8020       211
  88.8240       221
  88.8460       219
  88.8680       190
  88.8900       224
  88.9120       244
  88.9340       232
  88.9560       225
  88.9780       193
  89.0000       219
  89.0220       216
  89.0440       235
  89.0660       213
  89.0880       223
  89.1100       226
  89.1320       223
  89.1540       212
  89.1760       191
  89.1980       211
  89.2200       209
  89.2420       221
  89.2640       255
  89.2860       212
  89.3080       216
  89.3300       236
  89.3520       199
  89.3740       221
  89.3960       255
  89.4180       216
  89.4400       225
  89.4620       217
  89.4840       239
  89.5060       229
  89.5280       253
  89.5500       227
  89.5720       226
  89.5940       256
  89.6160       219
  89.6380       232
  89.6600       199
  89.6820       226
  89.7040       231
  89.7260       204
  89.7480       249
  89.7700       253
  89.7920       225
  89.8140       236
  89.8360       242
  89.8580       217
  89.8800       239
  89.9020       223
  89.9240       243
  89.9460       218
  89.9680       239
  89.9900       238
  90.0120       234
  90.0340       253
  90.0560       235
  90.0780       232
  90.1000       249
  90.1220       235
  90.1440       244
  90.1660       258
  90.1880       237
  90.2100       211
  90.2320       251
  90.2540       265
  90.2760       227
  90.2980       254
  90.3200       252
  90.3420       261
  90.3640       232
  90.3860       237
  90.4080       253
  90.4300       274
  90.4520       260
  90.4740       284
  90.4960       264
  90.5180       270
  90.5400       288
  90.5620       280
  90.5840       316
  90.6060       292
  90.6280       285
  90.6500       278
  90.6720       269
  90.6940       282
  90.7160       292
  90.7380       284
  90.7600       296
  90.7820       311
  90.8040       302
  90.8260       302
  90.8480       302
  90.8700       332
  90.8920       305
  90.9140       290
  90.9360       284
  90.9580       325
  90.9800       311
  91.0020       306
  91.0240       294
  91.0460       272
  91.0680       288
  91.0900       272
  91.1120       314
  91.1340       259
  91.1560       263
  91.1780       283
  91.2000       293
  91.2220       237
  91.2440       255
  91.2660       240
  91.2880       258
  91.3100       237
  91.3320       258
  91.3540       246
  91.3760       246
  91.3980       234
  91.4200       261
  91.4420       217
  91.4640       244
  91.4860       242
  91.5080       238
  91.5300       236
  91.5520       233
  91.5740       216
  91.5960       238
  91.6180       234
  91.6400       243
  91.6620       220
  91.6840       263
  91.7060       233
  91.7280       225
  91.7500       214
  91.7720       260
  91.7940       204
  91.8160       230
  91.8380       235
  91.8600       197
  91.8820       230
  91.9040       239
  91.9260       243
  91.9480       230
  91.9700       226
  91.9920       246
  92.0140       236
  92.0360       230
  92.0580       242
  92.0800       214
  92.1020       230
  92.1240       215
  92.1460       196
  92.1680       199
  92.1900       203
  92.2120       234
  92.2340       210
  92.2560       240
  92.2780       241
  92.3000       236
  92.3220       216
  92.3440       211
  92.3660       197
  92.3880       211
  92.4100       225
  92.4320       251
  92.4540       204
  92.4760       218
  92.4980       233
  92.5200       213
  92.5420       233
  92.5640       217
  92.5860       225
  92.6080       233
  92.6300       193
  92.6520       223
  92.6740       227
  92.6960       219
  92.7180       211
  92.7400       216
  92.7620       205
  92.7840       235
  92.8060       216
  92.8280       245
  92.8500       218
  92.8720       197
  92.8940       223
  92.9160       240
  92.9380       251
  92.9600       223
  92.9820       210
  93.0040       213
  93.0260       220
  93.0480       222
  93.0700       225
  93.0920       224
  93.1140       211
  93.1360       257
  93.1580       215
  93.1800       225
  93.2020       231
  93.2240       235
  93.2460       208
  93.2680       188
  93.2900       207
  93.3120       238
  93.3340       217
  93.3560       215
  93.3780       225
  93.4000       214
  93.4220       225
  93.4440       199
  93.4660       201
  93.4880       224
  93.5100       231
  93.5320       205
  93.5540       268
  93.5760       249
  93.5980       233
  93.6200       206
  93.6420       238
  93.6640       237
  93.6860       207
  93.7080       231
  93.7300       207
  93.7520       232
  93.7740       229
  93.7960       247
  93.8180       221
  93.8400       226
  93.8620       241
  93.8840       208
  93.9060       235
  93.9280       212
  93.9500       220
  93.9720       207
  93.9940       241
  94.0160       213
  94.0380       223
  94.0600       224
  94.0820       226
  94.1040       233
  94.1260       228
  94.1480       206
  94.1700       227
  94.1920       206
  94.2140       216
  94.2360       221
  94.2580       209
  94.2800       230
  94.3020       212
  94.3240       217
  94.3460       222
  94.3680       215
  94.3900       210
  94.4120       215
  94.4340       197
  94.4560       227
  94.4780       233
  94.5000       218
  94.5220       216
  94.5440       242
  94.5660       234
  94.5880       213
  94.6100       234
  94.6320       226
  94.6540       220
  94.6760       239
  94.6980       238
  94.7200       235
  94.7420       232
  94.7640       214
  94.7860       214
  94.8080       220
  94.8300       241
  94.8520       220
  94.8740       224
  94.8960       239
  94.9180       218
  94.9400       207
  94.9620       254
  94.9840       215
  95.0060       216
  95.0280       225
  95.0500       243
  95.0720       220
  95.0940       225
  95.1160       225
  95.1380       237
  95.1600       243
  95.1820       227
  95.2040       218
  95.2260       236
  95.2480       215
  95.2700       239
  95.2920       258
  95.3140       244
  95.3360       270
  95.3580       238
  95.3800       225
  95.4020       231
  95.4240       239
  95.4460       232
  95.4680       260
  95.4900       266
  95.5120       262
  95.5340       214
  95.5560       214
  95.5780       244
  95.6000       233
  95.6220       208
  95.6440       238
  95.6660       217
  95.6880       245
  95.7100       230
  95.7320       218
  95.7540       227
  95.7760       254
  95.7980       227
  95.8200       250
  95.8420       243
  95.8640       253
  95.8860       227
  95.9080       220
  95.9300       234
  95.9520       235
  95.9740       240
  95.9960       197
  96.0180       222
  96.0400       239
  96.0620       201
  96.0840       284
  96.1060       219
  96.1280       229
  96.1500       228
  96.1720       236
  96.1940       217
  96.2160       248
  96.2380       244
  96.2600       203
  96.2820       235
  96.3040       230
  96.3260       217
  96.3480       213
  96.3700       227
  96.3920       243
  96.4140       218
  96.4360       217
  96.4580       209
  96.4800       219
  96.5020       239
  96.5240       244
  96.5460       217
  96.5680       215
  96.5900       212
  96.6120       220
  96.6340       221
  96.6560       229
  96.6780       243
  96.7000       237
  96.7220       214
  96.7440       228
  96.7660       228
  96.7880       231
  96.8100       222
  96.8320       210
  96.8540       242
  96.8760       218
  96.8980       212
  96.9200       203
  96.9420       230
  96.9640       209
  96.9860       225
  97.0080       242
  97.0300       211
  97.0520       227
  97.0740       204
  97.0960       228
  97.1180       244
  97.1400       234
  97.1620       210
  97.1840       222
  97.2060       197
  97.2280       195
  97.2500       232
  97.2720       222
  97.2940       223
  97.3160       218
  97.3380       208
  97.3600       224
  97.3820       229
  97.4040       220
  97.4260       227
  97.4480       189
  97.4700       215
  97.4920       191
  97.5140       228
  97.5360       224
  97.5580       225
  97.5800       230
  97.6020       239
  97.6240       217
  97.6460       244
  97.6680       233
  97.6900       243
  97.7120       229
  97.7340       209
  97.7560       236
  97.7780       223
  97.8000       227
  97.8220       232
  97.8440       215
  97.8660       221
  97.8880       241
  97.9100       213
  97.9320       247
  97.9540       218
  97.9760       217
  97.9980       245
  98.0200       240
  98.0420       218
  98.0640       232
  98.0860       216
  98.1080       222
  98.1300       210
  98.1520       245
  98.1740       220
  98.1960       219
  98.2180       243
  98.2400       217
  98.2620       232
  98.2840       233
  98.3060       200
  98.3280       235
  98.3500       210
  98.3720       199
  98.3940       213
  98.4160       217
  98.4380       222
  98.4600       230
  98.4820       222
  98.5040       226
  98.5260       196
  98.5480       246
  98.5700       210
  98.5920       242
  98.6140       210
  98.6360       246
  98.6580       206
  98.6800       221
  98.7020       213
  98.7240       226
  98.7460       225
  98.7680       243
  98.7900       219
  98.8120       216
  98.8340       217
  98.8560       216
  98.8780       209
  98.9000       207
  98.9220       227
  98.9440       216
  98.9660       231
  98.9880       222
  99.0100       211
  99.0320       218
  99.0540       209
  99.0760       216
  99.0980       202
  99.1200       227
  99.1420       236
  99.1640       223
  99.1860       228
  99.2080       225
  99.2300       204
  99.2520       227
  99.2740       230
  99.2960       254
  99.3180       210
  99.3400       232
  99.3620       204
  99.3840       230
  99.4060       230
  99.4280       206
  99.4500       220
  99.4720       205
  99.4940       227
  99.5160       216
  99.5380       223
  99.5600       239
  99.5820       224
  99.6040       220
  99.6260       254
  99.6480       233
  99.6700       232
  99.6920       237
  99.7140       227
  99.7360       210
  99.7580       220
  99.7800       252
  99.8020       231
  99.8240       249
  99.8460       228
  99.8680       218
  99.8900       230
  99.9120       247
  99.9340       213
  99.9560       232
  99.9780       211
 100.0000       229
 100.0220       250
 100.0440       236
 100.0660       206
 100.0880       222
 100.1100       216
 100.1320       244
 100.1540       209
 100.1760       238
 100.1980       233
 100.2200       240
 100.2420       263
 100.2640       216
 100.2860       250
 100.3080       232
 100.3300       269
 100.3520       259
 100.3740       259
 100.3960       265
 100.4180       259
 100.4400       242
 100.4620       239
 100.4840       244
 100.5060       294
 100.5280       287
 100.5500       222
 100.5720       250
 100.5940       232
 100.6160       262
 100.6380       231
 100.6600       257
 100.6820       250
 100.7040       256
 100.7260       228
 100.7480       218
 100.7700       238
 100.7920       253
 100.8140       236
 100.8360       253
 100.8580       238
 100.8800       268
 100.9020       256
 100.9240       238
 100.9460       244
 100.9680       252
 100.9900       217
 101.0120       280
 101.0340       246
 101.0560       271
 101.0780       277
 101.1000       255
 101.1220       234
 101.1440       194
 101.1660       245
 101.1880       246
 101.2100       227
 101.2320       210
 101.2540       242
 101.2760       224
 101.2980       230
 101.3200       223
 101.3420       256
 101.3640       252
 101.3860       249
 101.4080       231
 101.4300       237
 101.4520       250
 101.4740       237
 101.4960       230
 101.5180       221
 101.5400       213
 101.5620       225
 101.5840       243
 101.6060       228
 101.6280       210
 101.6500       226
 101.6720       229
 101.6940       244
 101.7160       247
 101.7380       236
 101.7600       216
 101.7820       254
 101.8040       235
 101.8260       203
 101.8480       261
 101.8700       219
 101.8920       230
 101.9140       214
 101.9360       233
 101.9580       241
 101.9800       228
 102.0020       219
 102.0240       237
 102.0460       214
 102.0680       227
 102.0900       254
 102.1120       217
 102.1340       227
 102.1560       237
 102.1780       209
 102.2000       217
 102.2220       223
 102.2440       236
 102.2660       226
 102.2880       214
 102.3100       244
 102.3320       243
 102.3540       217
 102.3760       206
 102.3980       224
 102.4200       221
 102.4420       244
 102.4640       243
 102.4860       239
 102.5080       216
 102.5300       254
 102.5520       214
 102.5740       233
 102.5960       213
 102.6180       204
 102.6400       234
 102.6620       214
 102.6840       205
 102.7060       214
 102.7280       237
 102.7500       227
 102.7720       223
 102.7940       214
 102.8160       218
 102.8380       198
 102.8600       233
 102.8820       206
 102.9040       238
 102.9260       197
 102.9480       237
 102.9700       238
 102.9920       242
 103.0140       209
 103.0360       216
 103.0580       216
 103.0800       241
 103.1020       210
 103.1240       221
 103.1460       215
 103.1680       203
 103.1900       238
 103.2120       241
 103.2340       206
 103.2560       236
 103.2780       225
 103.3000       235
 103.3220       227
 103.3440       244
 103.3660       223
 103.3880       236
 103.4100       226
 103.4320       252
 103.4540       248
 103.4760       216
 103.4980       217
 103.5200       226
 103.5420       223
 103.5640       212
 103.5860       248
 103.6080       231
 103.6300       237
 103.6520       236
 103.6740       228
 103.6960       245
 103.7180       202
 103.7400       237
 103.7620       208
 103.7840       230
 103.8060       218
 103.8280       233
 103.8500       218
 103.8720       213
 103.8940       238
 103.9160       225
 103.9380       205
 103.9600       228
 103.9820       219
 104.0040       222
 104.0260       247
 104.0480       207
 104.0700       216
 104.0920       222
 104.1140       212
 104.1360       225
 104.1580       247
 104.1800       232
 104.2020       210
 104.2240       228
 104.2460       245
 104.2680       213
 104.2900       248
 104.3120       217
 104.3340       219
 104.3560       221
 104.3780       213
 104.4000       215
 104.4220       246
 104.4440       206
 104.4660       202
 104.4880       207
 104.5100       203
 104.5320       221
 104.5540       204
 104.5760       229
 104.5980       216
 104.6200       228
 104.6420       223
 104.6640       246
 104.6860       253
 104.7080       214
 104.7300       244
 104.7520       232
 104.7740       210
 104.7960       181
 104.8180       234
 104.8400       222
 104.8620       226
 104.8840       204
 104.9060       223
 104.9280       227
 104.9500       219
 104.9720       262
 104.9940       242
 105.0160       228
 105.0380       247
 105.0600       217
 105.0820       227
 105.1040       219
 105.1260       206
 105.1480       225
 105.1700       249
 105.1920       220
 105.2140       225
 105.2360       239
 105.2580       252
 105.2800       213
 105.3020       232
 105.3240       216
 105.3460       229
 105.3680       194
 105.3900       205
 105.4120       238
 105.4340       228
 105.4560       236
 105.4780       240
 105.5000       218
 105.5220       225
 105.5440       214
 105.5660       206
 105.5880       208
 105.6100       231
 105.6320       226
 105.6540       221
 105.6760       233
 105.6980       210
 105.7200       256
 105.7420       204
 105.7640       238
 105.7860       269
 105.8080       251
 105.8300       209
 105.8520       208
 105.8740       239
 105.8960       232
 105.9180       216
 105.9400       228
 105.9620       218
 105.9840       232
 106.0060       244
 106.0280       226
 106.0500       222
 106.0720       219
 106.0940       229
 106.1160       211
 106.1380       205
 106.1600       253
 106.1820       239
 106.2040       242
 106.2260       219
 106.2480       219
 106.2700       206
 106.2920       205
 106.3140       215
 106.3360       223
 106.3580       229
 106.3800       241
 106.4020       232
 106.4240       243
 106.4460       234
 106.4680       192
 106.4900       224
 106.5120       210
 106.5340       248
 106.5560       223
 106.5780       219
 106.6000       244
 106.6220       229
 106.6440       225
 106.6660       218
 106.6880       247
 106.7100       234
 106.7320       247
 106.7540       209
 106.7760       246
 106.7980       207
 106.8200       231
 106.8420       234
 106.8640       260
 106.8860       207
 106.9080       215
 106.9300       225
 106.9520       224
 106.9740       240
 106.9960       204
 107.0180       223
 107.0400       206
 107.0620       220
 107.0840       223
 107.1060       231
 107.1280       234
 107.1500       225
 107.1720       228
 107.1940       219
 107.2160       256
 107.2380       237
 107.2600       228
 107.2820       267
 107.3040       236
 107.3260       237
 107.3480       235
 107.3700       206
 107.3920       222
 107.4140       208
 107.4360       241
 107.4580       219
 107.4800       228
 107.5020       217
 107.5240       247
 107.5460       238
 107.5680       253
 107.5900       213
 107.6120       221
 107.6340       234
 107.6560       255
 107.6780       236
 107.7000       218
 107.7220       236
 107.7440       241
 107.7660       233
 107.7880       211
 107.8100       233
 107.8320       253
 107.8540       235
 107.8760       229
 107.8980       226
 107.9200       244
 107.9420       248
 107.9640       221
 107.9860       208
 108.0080       247
 108.0300       253
 108.0520       238
 108.0740       221
 108.0960       241
 108.1180       232
 108.1400       213
 108.1620       217
 108.1840       235
 108.2060       228
 108.2280       236
 108.2500       230
 108.2720       250
 108.2940       228
 108.3160       227
 108.3380       237
 108.3600       243
 108.3820       197
 108.4040       224
 108.4260       208
 108.4480       239
 108.4700       238
 108.4920       235
 108.5140       251
 108.5360       232
 108.5580       246
 108.5800       262
 108.6020       236
 108.6240       210
 108.6460       254
 108.6680       228
 108.6900       225
 108.7120       241
 108.7340       214
 108.7560       232
 108.7780       234
 108.8000       236
 108.8220       222
 108.8440       234
 108.8660       249
 108.8880       221
 108.9100       228
 108.9320       271
 108.9540       235
 108.9760       232
 108.9980       240
 109.0200       238
 109.0420       217
 109.0640       242
 109.0860       236
 109.1080       236
 109.1300       267
 109.1520       262
 109.1740       253
 109.1960       241
 109.2180       238
 109.2400       234
 109.2620       260
 109.2840       242
 109.3060       253
 109.3280       267
 109.3500       227
 109.3720       233
 109.3940       235
 109.4160       244
 109.4380       269
 109.4600       249
 109.4820       250
 109.5040       237
 109.5260       235
 109.5480       251
 109.5700       251
 109.5920       276
 109.6140       234
 109.6360       244
 109.6580       267
 109.6800       260
 109.7020       267
 109.7240       217
 109.7460       244
 109.7680       261
 109.7900       268
 109.8120       242
 109.8340       253
 109.8560       255
 109.8780       283
 109.9000       250
 109.9220       276
 109.9440       251
 109.9660       272
 109.9880       251
 110.0100       293
 110.0320       276
 110.0540       263
 110.0760       281
 110.0980       247
 110.1200       282
 110.1420       263
 110.1640       238
 110.1860       256
 110.2080       267
 110.2300       240
 110.2520       257
 110.2740       280
 110.2960       264
 110.3180       267
 110.3400       251
 110.3620       244
 110.3840       276
 110.4060       237
 110.4280       267
 110.4500       289
 110.4720       251
 110.4940       262
 110.5160       245
 110.5380       221
 110.5600       267
 110.5820       259
 110.6040       277
 110.6260       246
 110.6480       253
 110.6700       254
 110.6920       273
 110.7140       289
 110.7360       257
 110.7580       271
 110.7800       284
 110.8020       269
 110.8240       252
 110.8460       256
 110.8680       264
 110.8900       284
 110.9120       244
 110.9340       283
 110.9560       282
 110.9780       277
 111.0000       239
 111.0220       253
 111.0440       240
 111.0660       244
 111.0880       250
 111.1100       243
 111.1320       252
 111.1540       247
 111.1760       249
 111.1980       230
 111.2200       250
 111.2420       261
 111.2640       216
 111.2860       245
 111.3080       231
 111.3300       236
 111.3520       248
 111.3740       237
 111.3960       235
 111.4180       235
 111.4400       243
 111.4620       257
 111.4840       266
 111.5060       252
 111.5280       232
 111.5500       229
 111.5720       249
 111.5940       255
 111.6160       236
 111.6380       202
 111.6600       236
 111.6820       208
 111.7040       272
 111.7260       222
 111.7480       226
 111.7700       246
 111.7920       265
 111.8140       255
 111.8360       218
 111.8580       203
 111.8800       246
 111.9020       260
 111.9240       255
 111.9460       240
 111.9680       234
 111.9900       209
 112.0120       242
 112.0340       238
 112.0560       231
 112.0780       228
 112.1000       240
 112.1220       228
 112.1440       242
 112.1660       245
 112.1880       240
 112.2100       248
 112.2320       198
 112.2540       242
 112.2760       219
 112.2980       247
 112.3200       236
 112.3420       247
 112.3640       221
 112.3860       219
 112.4080       251
 112.4300       250
 112.4520       253
 112.4740       221
 112.4960       266
 112.5180       246
 112.5400       241
 112.5620       241
 112.5840       226
 112.6060       232
 112.6280       263
 112.6500       249
 112.6720       223
 112.6940       238
 112.7160       228
 112.7380       241
 112.7600       216
 112.7820       244
 112.8040       246
 112.8260       228
 112.8480       221
 112.8700       240
 112.8920       245
 112.9140       256
 112.9360       242
 112.9580       226
 112.9800       233
 113.0020       230
 113.0240       249
 113.0460       243
 113.0680       238
 113.0900       225
 113.1120       252
 113.1340       215
 113.1560       255
 113.1780       239
 113.2000       221
 113.2220       222
 113.2440       219
 113.2660       240
 113.2880       242
 113.3100       248
 113.3320       249
 113.3540       247
 113.3760       218
 113.3980       230
 113.4200       240
 113.4420       235
 113.4640       237
 113.4860       211
 113.5080       257
 113.5300       252
 113.5520       233
 113.5740       231
 113.5960       248
 113.6180       246
 113.6400       242
 113.6620       265
 113.6840       215
 113.7060       262
 113.7280       245
 113.7500       263
 113.7720       234
 113.7940       270
 113.8160       240
 113.8380       201
 113.8600       229
 113.8820       232
 113.9040       221
 113.9260       215
 113.9480       225
 113.9700       241
 113.9920       266
 114.0140       253
 114.0360       228
 114.0580       246
 114.0800       241
 114.1020       248
 114.1240       239
 114.1460       250
 114.1680       234
 114.1900       229
 114.2120       222
 114.2340       221
 114.2560       249
 114.2780       238
 114.3000       239
 114.3220       231
 114.3440       210
 114.3660       251
 114.3880       238
 114.4100       258
 114.4320       233
 114.4540       218
 114.4760       247
 114.4980       236
 114.5200       212
 114.5420       201
 114.5640       238
 114.5860       255
 114.6080       261
 114.6300       246
 114.6520       230
 114.6740       250
 114.6960       238
 114.7180       247
 114.7400       241
 114.7620       222
 114.7840       242
 114.8060       224
 114.8280       223
 114.8500       238
 114.8720       257
 114.8940       244
 114.9160       243
 114.9380       272
 114.9600       267
 114.9820       269
 115.0040       261
 115.0260       248
 115.0480       278
 115.0700       272
 115.0920       244
 115.1140       281
 115.1360       251
 115.1580       261
 115.1800       232
 115.2020       273
 115.2240       242
 115.2460       242
 115.2680       282
 115.2900       253
 115.3120       238
 115.3340       256
 115.3560       256
 115.3780       264
 115.4000       233
 115.4220       275
 115.4440       269
 115.4660       251
 115.4880       238
 115.5100       243
 115.5320       234
 115.5540       256
 115.5760       243
 115.5980       249
 115.6200       277
 115.6420       242
 115.6640       250
 115.6860       279
 115.7080       272
 115.7300       266
 115.7520       270
 115.7740       258
 115.7960       245
 115.8180       244
 115.8400       227
 115.8620       242
 115.8840       228
 115.9060       273
 115.9280       294
 115.9500       234
 115.9720       243
 115.9940       257
 116.0160       248
 116.0380       240
 116.0600       244
 116.0820       276
 116.1040       254
 116.1260       243
 116.1480       238
 116.1700       245
 116.1920       244
 116.2140       240
 116.2360       263
 116.2580       260
 116.2800       284
 116.3020       246
 116.3240       240
 116.3460       263
 116.3680       260
 116.3900       257
 116.4120       254
 116.4340       246
 116.4560       254
 116.4780       243
 116.5000       262
 116.5220       253
 116.5440       274
 116.5660       244
 116.5880       236
 116.6100       248
 116.6320       258
 116.6540       253
 116.6760       236
 116.6980       246
 116.7200       251
 116.7420       266
 116.7640       244
 116.7860       253
 116.8080       248
 116.8300       227
 116.8520       277
 116.8740       268
 116.8960       260
 116.9180       268
 116.9400       246
 116.9620       235
 116.9840       256
 117.0060       262
 117.0280       227
 117.0500       274
 117.0720       239
 117.0940       234
 117.1160       250
 117.1380       268
 117.1600       252
 117.1820       239
 117.2040       234
 117.2260       268
 117.2480       209
 117.2700       256
 117.2920       239
 117.3140       253
 117.3360       222
 117.3580       249
 117.3800       226
 117.4020       248
 117.4240       263
 117.4460       229
 117.4680       271
 117.4900       246
 117.5120       240
 117.5340       253
 117.5560       271
 117.5780       243
 117.6000       246
 117.6220       261
 117.6440       242
 117.6660       245
 117.6880       243
 117.7100       231
 117.7320       229
 117.7540       244
 117.7760       253
 117.7980       213
 117.8200       244
 117.8420       254
 117.8640       241
 117.8860       240
 117.9080       253
 117.9300       253
 117.9520       245
 117.9740       222
 117.9960       261
 118.0180       250
 118.0400       253
 118.0620       265
 118.0840       269
 118.1060       238
 118.1280       220
 118.1500       245
 118.1720       234
 118.1940       229
 118.2160       268
 118.2380       267
 118.2600       233
 118.2820       228
 118.3040       232
 118.3260       252
 118.3480       228
 118.3700       227
 118.3920       249
 118.4140       222
 118.4360       239
 118.4580       255
 118.4800       223
 118.5020       259
 118.5240       223
 118.5460       261
 118.5680       235
 118.5900       240
 118.6120       248
 118.6340       251
 118.6560       248
 118.6780       247
 118.7000       252
 118.7220       243
 118.7440       245
 118.7660       255
 118.7880       255
 118.8100       232
 118.8320       261
 118.8540       236
 118.8760       229
 118.8980       234
 118.9200       268
 118.9420       252
 118.9640       254
 118.9860       227
 119.0080       227
 119.0300       262
 119.0520       227
 119.0740       248
 119.0960       238
 119.1180       245
 119.1400       228
 119.1620       265
 119.1840       238
 119.2060       260
 119.2280       232
 119.2500       237
 119.2720       232
 119.2940       252
 119.3160       231
 119.3380       245
 119.3600       260
 119.3820       252
 119.4040       224
 119.4260       222
 119.4480       273
 119.4700       250
 119.4920       238
 119.5140       277
 119.5360       228
 119.5580       242
 119.5800       244
 119.6020       262
 119.6240       251
 119.6460       226
 119.6680       251
 119.6900       231
 119.7120       237
 119.7340       257
 119.7560       248
 119.7780       240
 119.8000       264
 119.8220       245
 119.8440       253
 119.8660       253
 119.8880       246
 119.9100       226
 119.9320       236
 119.9540       251
 119.9760       251
 119.9980       228
 120.0200       247
 120.0420       233
 120.0640       238
 120.0860       276
 120.1080       240
 120.1300       256
 120.1520       254
 120.1740       278
 120.1960       248
 120.2180       272
 120.2400       239
 120.2620       248
 120.2840       251
 120.3060       231
 120.3280       265
 120.3500       243
 120.3720       248
 120.3940       305
 120.4160       237
 120.4380       267
 120.4600       258
 120.4820       255
 120.5040       232
 120.5260       281
 120.5480       241
 120.5700       280
 120.5920       273
 120.6140       250
 120.6360       261
 120.6580       271
 120.6800       258
 120.7020       236
 120.7240       265
 120.7460       243
 120.7680       273
 120.7900       247
 120.8120       260
 120.8340       252
 120.8560       287
 120.8780       266
 120.9000       260
 120.9220       289
 120.9440       232
 120.9660       249
 120.9880       279
 121.0100       250
 121.0320       270
 121.0540       254
 121.0760       296
 121.0980       251
 121.1200       266
 121.1420       240
 121.1640       228
 121.1860       257
 121.2080       268
 121.2300       269
 121.2520       232
 121.2740       256
 121.2960       250
 121.3180       273
 121.3400       264
 121.3620       263
 121.3840       267
 121.4060       252
 121.4280       278
 121.4500       252
 121.4720       277
 121.4940       275
 121.5160       257
 121.5380       296
 121.5600       276
 121.5820       284
 121.6040       247
 121.6260       264
 121.6480       246
 121.6700       260
 121.6920       235
 121.7140       260
 121.7360       252
 121.7580       285
 121.7800       246
 121.8020       257
 121.8240       270
 121.8460       261
 121.8680       245
 121.8900       244
 121.9120       264
 121.9340       271
 121.9560       291
 121.9780       257
 122.0000       265
