; C:\Data\Froehlich\Praktikum\faber\probe2.raw(Diffrac Plus V1.01 file) converted by XCH V1.0
_FILEVERSION=2
_SAMPLE='probe2'
_SITE='II. Physikalisches Institut'
_ATTACHMENTS_CODE=0
_GONIOMETER_RADIUS=200.500000
_FIXED_DIVSLIT=2.000000
_FIXED_SAMPLESLIT=1.000000
_FIXED_DETSLIT=0.200000
_MONOCHROMATOR=0
; None
_THIN_FILM='N'
_BETA_FILTER='Y'
_FIXED_ANTISLIT=2.000000
_ANALYZER_CODE=0
; None
_DATEMEASURED='12-Nov-2015 16:55:34'
_WL_UNIT='A'
_WL1=1.540590
_WL2=1.544430
_WL3=1.392230
_WLRATIO=0.520000
_ANODE='Cu'
; (Data for Range number 1)
_DRIVE='COUPLED'
_STEPTIME=2.000000
_STEPSIZE=0.022000
_STEPMODE='C'
_START=12.000000
_THETA=6.000000
_2THETA=12.000000
_KHI=0.000000
_PHI=0.000000
_X=0.000000
_Y=0.000000
_Z=0.000000
_DIVERGENCE=0.000000
_ANTISCATTER=0.000000
_DETECTOR=1
; S.C.
_HV=1000.000000
_GAIN=80.000000
_LLD=0.550000
_ULD=1.310000
_DETECTORSLIT='unkn'
_AUX1=0.000000
_AUX2=0.000000
_AUX3=0.000000
_TIMESTARTED=13.000000
_ROTATION_SPEED=120.000000
_TEMP_RATE=-1.000000
_TEMP_DELAY=-1.000000
_KV=40
_MA=40
_RANGE_WL=1.540590
_3DPLANE=0
_2THETACOUNTS
  12.0000       220
  12.0220       239
  12.0440       242
  12.0660       263
  12.0880       266
  12.1100       212
  12.1320       245
  12.1540       235
  12.1760       236
  12.1980       249
  12.2200       238
  12.2420       255
  12.2640       254
  12.2860       245
  12.3080       237
  12.3300       235
  12.3520       259
  12.3740       232
  12.3960       237
  12.4180       254
  12.4400       232
  12.4620       210
  12.4840       254
  12.5060       253
  12.5280       238
  12.5500       243
  12.5720       274
  12.5940       274
  12.6160       231
  12.6380       266
  12.6600       248
  12.6820       249
  12.7040       221
  12.7260       251
  12.7480       232
  12.7700       236
  12.7920       264
  12.8140       258
  12.8360       237
  12.8580       250
  12.8800       230
  12.9020       247
  12.9240       237
  12.9460       270
  12.9680       266
  12.9900       206
  13.0120       243
  13.0340       255
  13.0560       245
  13.0780       244
  13.1000       245
  13.1220       261
  13.1440       257
  13.1660       241
  13.1880       235
  13.2100       251
  13.2320       239
  13.2540       235
  13.2760       252
  13.2980       221
  13.3200       255
  13.3420       258
  13.3640       233
  13.3860       231
  13.4080       248
  13.4300       259
  13.4520       263
  13.4740       269
  13.4960       215
  13.5180       261
  13.5400       267
  13.5620       245
  13.5840       236
  13.6060       240
  13.6280       263
  13.6500       217
  13.6720       283
  13.6940       255
  13.7160       263
  13.7380       261
  13.7600       262
  13.7820       242
  13.8040       237
  13.8260       263
  13.8480       247
  13.8700       250
  13.8920       252
  13.9140       267
  13.9360       256
  13.9580       267
  13.9800       258
  14.0020       247
  14.0240       254
  14.0460       227
  14.0680       306
  14.0900       248
  14.1120       275
  14.1340       269
  14.1560       275
  14.1780       248
  14.2000       257
  14.2220       236
  14.2440       257
  14.2660       253
  14.2880       273
  14.3100       262
  14.3320       212
  14.3540       262
  14.3760       274
  14.3980       261
  14.4200       243
  14.4420       262
  14.4640       234
  14.4860       257
  14.5080       245
  14.5300       255
  14.5520       266
  14.5740       252
  14.5960       267
  14.6180       243
  14.6400       246
  14.6620       230
  14.6840       263
  14.7060       290
  14.7280       246
  14.7500       258
  14.7720       261
  14.7940       259
  14.8160       241
  14.8380       269
  14.8600       249
  14.8820       245
  14.9040       246
  14.9260       254
  14.9480       244
  14.9700       252
  14.9920       269
  15.0140       247
  15.0360       245
  15.0580       271
  15.0800       226
  15.1020       252
  15.1240       240
  15.1460       290
  15.1680       281
  15.1900       261
  15.2120       282
  15.2340       280
  15.2560       261
  15.2780       257
  15.3000       257
  15.3220       273
  15.3440       275
  15.3660       271
  15.3880       262
  15.4100       246
  15.4320       271
  15.4540       269
  15.4760       318
  15.4980       266
  15.5200       267
  15.5420       284
  15.5640       261
  15.5860       260
  15.6080       281
  15.6300       254
  15.6520       281
  15.6740       269
  15.6960       277
  15.7180       257
  15.7400       278
  15.7620       268
  15.7840       235
  15.8060       271
  15.8280       293
  15.8500       261
  15.8720       289
  15.8940       272
  15.9160       284
  15.9380       282
  15.9600       282
  15.9820       248
  16.0040       285
  16.0260       287
  16.0480       284
  16.0700       260
  16.0920       301
  16.1140       286
  16.1360       270
  16.1580       288
  16.1800       281
  16.2020       268
  16.2240       285
  16.2460       258
  16.2680       324
  16.2900       291
  16.3120       277
  16.3340       298
  16.3560       282
  16.3780       287
  16.4000       261
  16.4220       276
  16.4440       278
  16.4660       285
  16.4880       306
  16.5100       276
  16.5320       284
  16.5540       298
  16.5760       289
  16.5980       271
  16.6200       297
  16.6420       286
  16.6640       291
  16.6860       288
  16.7080       269
  16.7300       260
  16.7520       251
  16.7740       276
  16.7960       248
  16.8180       296
  16.8400       283
  16.8620       277
  16.8840       285
  16.9060       279
  16.9280       306
  16.9500       252
  16.9720       264
  16.9940       308
  17.0160       297
  17.0380       275
  17.0600       262
  17.0820       276
  17.1040       314
  17.1260       295
  17.1480       303
  17.1700       260
  17.1920       309
  17.2140       314
  17.2360       305
  17.2580       312
  17.2800       292
  17.3020       296
  17.3240       297
  17.3460       320
  17.3680       296
  17.3900       319
  17.4120       330
  17.4340       274
  17.4560       301
  17.4780       301
  17.5000       288
  17.5220       286
  17.5440       298
  17.5660       302
  17.5880       331
  17.6100       310
  17.6320       306
  17.6540       302
  17.6760       329
  17.6980       308
  17.7200       303
  17.7420       309
  17.7640       302
  17.7860       314
  17.8080       286
  17.8300       297
  17.8520       310
  17.8740       302
  17.8960       312
  17.9180       351
  17.9400       312
  17.9620       334
  17.9840       301
  18.0060       304
  18.0280       311
  18.0500       325
  18.0720       309
  18.0940       306
  18.1160       314
  18.1380       324
  18.1600       295
  18.1820       314
  18.2040       304
  18.2260       304
  18.2480       323
  18.2700       304
  18.2920       300
  18.3140       351
  18.3360       319
  18.3580       332
  18.3800       325
  18.4020       311
  18.4240       319
  18.4460       329
  18.4680       298
  18.4900       328
  18.5120       342
  18.5340       302
  18.5560       352
  18.5780       316
  18.6000       344
  18.6220       365
  18.6440       319
  18.6660       347
  18.6880       322
  18.7100       341
  18.7320       328
  18.7540       356
  18.7760       327
  18.7980       306
  18.8200       341
  18.8420       329
  18.8640       313
  18.8860       314
  18.9080       322
  18.9300       315
  18.9520       327
  18.9740       324
  18.9960       308
  19.0180       356
  19.0400       351
  19.0620       356
  19.0840       305
  19.1060       320
  19.1280       343
  19.1500       342
  19.1720       341
  19.1940       347
  19.2160       352
  19.2380       305
  19.2600       339
  19.2820       326
  19.3040       310
  19.3260       326
  19.3480       341
  19.3700       314
  19.3920       340
  19.4140       307
  19.4360       321
  19.4580       330
  19.4800       383
  19.5020       333
  19.5240       347
  19.5460       321
  19.5680       379
  19.5900       363
  19.6120       356
  19.6340       341
  19.6560       350
  19.6780       353
  19.7000       363
  19.7220       355
  19.7440       350
  19.7660       320
  19.7880       342
  19.8100       352
  19.8320       333
  19.8540       324
  19.8760       366
  19.8980       343
  19.9200       364
  19.9420       346
  19.9640       368
  19.9860       345
  20.0080       390
  20.0300       367
  20.0520       297
  20.0740       341
  20.0960       363
  20.1180       359
  20.1400       349
  20.1620       327
  20.1840       354
  20.2060       353
  20.2280       355
  20.2500       356
  20.2720       337
  20.2940       363
  20.3160       342
  20.3380       342
  20.3600       390
  20.3820       381
  20.4040       338
  20.4260       368
  20.4480       353
  20.4700       373
  20.4920       367
  20.5140       388
  20.5360       351
  20.5580       377
  20.5800       356
  20.6020       369
  20.6240       370
  20.6460       387
  20.6680       385
  20.6900       332
  20.7120       356
  20.7340       346
  20.7560       379
  20.7780       361
  20.8000       406
  20.8220       364
  20.8440       382
  20.8660       385
  20.8880       394
  20.9100       409
  20.9320       372
  20.9540       352
  20.9760       346
  20.9980       378
  21.0200       411
  21.0420       351
  21.0640       394
  21.0860       390
  21.1080       403
  21.1300       371
  21.1520       333
  21.1740       364
  21.1960       392
  21.2180       395
  21.2400       380
  21.2620       382
  21.2840       381
  21.3060       394
  21.3280       382
  21.3500       372
  21.3720       387
  21.3940       380
  21.4160       366
  21.4380       369
  21.4600       388
  21.4820       432
  21.5040       389
  21.5260       448
  21.5480       407
  21.5700       406
  21.5920       429
  21.6140       387
  21.6360       361
  21.6580       382
  21.6800       413
  21.7020       420
  21.7240       375
  21.7460       454
  21.7680       412
  21.7900       398
  21.8120       431
  21.8340       426
  21.8560       421
  21.8780       400
  21.9000       366
  21.9220       396
  21.9440       386
  21.9660       408
  21.9880       393
  22.0100       390
  22.0320       413
  22.0540       409
  22.0760       408
  22.0980       392
  22.1200       403
  22.1420       403
  22.1640       401
  22.1860       439
  22.2080       392
  22.2300       423
  22.2520       420
  22.2740       412
  22.2960       420
  22.3180       418
  22.3400       405
  22.3620       376
  22.3840       409
  22.4060       434
  22.4280       399
  22.4500       430
  22.4720       418
  22.4940       423
  22.5160       413
  22.5380       434
  22.5600       389
  22.5820       419
  22.6040       434
  22.6260       443
  22.6480       411
  22.6700       402
  22.6920       417
  22.7140       389
  22.7360       408
  22.7580       447
  22.7800       378
  22.8020       432
  22.8240       410
  22.8460       420
  22.8680       465
  22.8900       458
  22.9120       468
  22.9340       467
  22.9560       466
  22.9780       407
  23.0000       422
  23.0220       450
  23.0440       413
  23.0660       453
  23.0880       429
  23.1100       472
  23.1320       475
  23.1540       447
  23.1760       450
  23.1980       444
  23.2200       432
  23.2420       465
  23.2640       485
  23.2860       443
  23.3080       455
  23.3300       465
  23.3520       487
  23.3740       435
  23.3960       460
  23.4180       447
  23.4400       474
  23.4620       437
  23.4840       470
  23.5060       502
  23.5280       466
  23.5500       487
  23.5720       483
  23.5940       504
  23.6160       511
  23.6380       466
  23.6600       494
  23.6820       551
  23.7040       553
  23.7260       544
  23.7480       577
  23.7700       519
  23.7920       532
  23.8140       528
  23.8360       574
  23.8580       562
  23.8800       531
  23.9020       538
  23.9240       546
  23.9460       533
  23.9680       516
  23.9900       523
  24.0120       490
  24.0340       487
  24.0560       537
  24.0780       501
  24.1000       523
  24.1220       457
  24.1440       463
  24.1660       472
  24.1880       495
  24.2100       463
  24.2320       508
  24.2540       466
  24.2760       463
  24.2980       435
  24.3200       415
  24.3420       454
  24.3640       469
  24.3860       446
  24.4080       416
  24.4300       455
  24.4520       423
  24.4740       433
  24.4960       448
  24.5180       407
  24.5400       437
  24.5620       440
  24.5840       441
  24.6060       446
  24.6280       444
  24.6500       425
  24.6720       443
  24.6940       415
  24.7160       429
  24.7380       423
  24.7600       460
  24.7820       446
  24.8040       448
  24.8260       447
  24.8480       434
  24.8700       430
  24.8920       441
  24.9140       428
  24.9360       433
  24.9580       448
  24.9800       430
  25.0020       425
  25.0240       411
  25.0460       389
  25.0680       420
  25.0900       426
  25.1120       407
  25.1340       430
  25.1560       470
  25.1780       385
  25.2000       413
  25.2220       379
  25.2440       415
  25.2660       400
  25.2880       429
  25.3100       438
  25.3320       442
  25.3540       418
  25.3760       429
  25.3980       443
  25.4200       427
  25.4420       444
  25.4640       447
  25.4860       395
  25.5080       416
  25.5300       439
  25.5520       427
  25.5740       440
  25.5960       448
  25.6180       429
  25.6400       424
  25.6620       458
  25.6840       395
  25.7060       441
  25.7280       423
  25.7500       482
  25.7720       439
  25.7940       454
  25.8160       411
  25.8380       456
  25.8600       411
  25.8820       457
  25.9040       412
  25.9260       432
  25.9480       431
  25.9700       429
  25.9920       405
  26.0140       425
  26.0360       450
  26.0580       422
  26.0800       453
  26.1020       390
  26.1240       403
  26.1460       413
  26.1680       407
  26.1900       447
  26.2120       437
  26.2340       410
  26.2560       438
  26.2780       412
  26.3000       397
  26.3220       379
  26.3440       413
  26.3660       436
  26.3880       414
  26.4100       410
  26.4320       432
  26.4540       414
  26.4760       409
  26.4980       386
  26.5200       438
  26.5420       428
  26.5640       405
  26.5860       414
  26.6080       432
  26.6300       435
  26.6520       411
  26.6740       409
  26.6960       429
  26.7180       395
  26.7400       418
  26.7620       431
  26.7840       413
  26.8060       414
  26.8280       436
  26.8500       408
  26.8720       409
  26.8940       422
  26.9160       378
  26.9380       426
  26.9600       436
  26.9820       393
  27.0040       408
  27.0260       393
  27.0480       418
  27.0700       447
  27.0920       429
  27.1140       410
  27.1360       422
  27.1580       369
  27.1800       446
  27.2020       385
  27.2240       395
  27.2460       395
  27.2680       408
  27.2900       445
  27.3120       413
  27.3340       360
  27.3560       457
  27.3780       389
  27.4000       431
  27.4220       453
  27.4440       446
  27.4660       406
  27.4880       441
  27.5100       384
  27.5320       426
  27.5540       381
  27.5760       438
  27.5980       432
  27.6200       414
  27.6420       428
  27.6640       414
  27.6860       452
  27.7080       375
  27.7300       427
  27.7520       437
  27.7740       453
  27.7960       417
  27.8180       396
  27.8400       440
  27.8620       405
  27.8840       373
  27.9060       417
  27.9280       398
  27.9500       399
  27.9720       443
  27.9940       432
  28.0160       426
  28.0380       392
  28.0600       419
  28.0820       433
  28.1040       380
  28.1260       407
  28.1480       422
  28.1700       434
  28.1920       404
  28.2140       396
  28.2360       423
  28.2580       417
  28.2800       412
  28.3020       399
  28.3240       419
  28.3460       408
  28.3680       444
  28.3900       390
  28.4120       396
  28.4340       427
  28.4560       415
  28.4780       388
  28.5000       415
  28.5220       395
  28.5440       349
  28.5660       430
  28.5880       445
  28.6100       414
  28.6320       413
  28.6540       421
  28.6760       424
  28.6980       438
  28.7200       401
  28.7420       413
  28.7640       440
  28.7860       427
  28.8080       422
  28.8300       409
  28.8520       430
  28.8740       372
  28.8960       403
  28.9180       429
  28.9400       390
  28.9620       356
  28.9840       411
  29.0060       430
  29.0280       436
  29.0500       420
  29.0720       378
  29.0940       443
  29.1160       434
  29.1380       419
  29.1600       378
  29.1820       401
  29.2040       390
  29.2260       443
  29.2480       428
  29.2700       403
  29.2920       456
  29.3140       392
  29.3360       422
  29.3580       425
  29.3800       396
  29.4020       419
  29.4240       442
  29.4460       435
  29.4680       426
  29.4900       384
  29.5120       422
  29.5340       419
  29.5560       437
  29.5780       425
  29.6000       407
  29.6220       414
  29.6440       422
  29.6660       401
  29.6880       443
  29.7100       389
  29.7320       427
  29.7540       379
  29.7760       388
  29.7980       409
  29.8200       395
  29.8420       378
  29.8640       386
  29.8860       430
  29.9080       410
  29.9300       415
  29.9520       421
  29.9740       398
  29.9960       411
  30.0180       410
  30.0400       403
  30.0620       387
  30.0840       427
  30.1060       417
  30.1280       364
  30.1500       421
  30.1720       419
  30.1940       419
  30.2160       367
  30.2380       377
  30.2600       445
  30.2820       404
  30.3040       424
  30.3260       388
  30.3480       420
  30.3700       415
  30.3920       389
  30.4140       416
  30.4360       358
  30.4580       411
  30.4800       425
  30.5020       393
  30.5240       410
  30.5460       411
  30.5680       424
  30.5900       408
  30.6120       408
  30.6340       395
  30.6560       415
  30.6780       410
  30.7000       391
  30.7220       400
  30.7440       377
  30.7660       378
  30.7880       413
  30.8100       419
  30.8320       390
  30.8540       441
  30.8760       396
  30.8980       388
  30.9200       441
  30.9420       436
  30.9640       411
  30.9860       367
  31.0080       410
  31.0300       396
  31.0520       409
  31.0740       427
  31.0960       425
  31.1180       359
  31.1400       393
  31.1620       446
  31.1840       434
  31.2060       388
  31.2280       394
  31.2500       402
  31.2720       389
  31.2940       416
  31.3160       389
  31.3380       391
  31.3600       372
  31.3820       393
  31.4040       422
  31.4260       426
  31.4480       394
  31.4700       419
  31.4920       419
  31.5140       386
  31.5360       396
  31.5580       425
  31.5800       427
  31.6020       390
  31.6240       399
  31.6460       420
  31.6680       412
  31.6900       429
  31.7120       382
  31.7340       423
  31.7560       406
  31.7780       401
  31.8000       418
  31.8220       382
  31.8440       419
  31.8660       442
  31.8880       394
  31.9100       436
  31.9320       428
  31.9540       395
  31.9760       396
  31.9980       410
  32.0200       379
  32.0420       346
  32.0640       391
  32.0860       384
  32.1080       432
  32.1300       424
  32.1520       421
  32.1740       406
  32.1960       407
  32.2180       401
  32.2400       380
  32.2620       467
  32.2840       407
  32.3060       427
  32.3280       418
  32.3500       406
  32.3720       398
  32.3940       418
  32.4160       416
  32.4380       408
  32.4600       402
  32.4820       405
  32.5040       390
  32.5260       411
  32.5480       405
  32.5700       387
  32.5920       377
  32.6140       423
  32.6360       430
  32.6580       395
  32.6800       389
  32.7020       414
  32.7240       388
  32.7460       430
  32.7680       430
  32.7900       445
  32.8120       393
  32.8340       412
  32.8560       437
  32.8780       473
  32.9000       418
  32.9220       437
  32.9440       443
  32.9660       390
  32.9880       432
  33.0100       417
  33.0320       396
  33.0540       447
  33.0760       413
  33.0980       445
  33.1200       442
  33.1420       438
  33.1640       436
  33.1860       456
  33.2080       437
  33.2300       415
  33.2520       452
  33.2740       480
  33.2960       418
  33.3180       474
  33.3400       467
  33.3620       466
  33.3840       419
  33.4060       444
  33.4280       491
  33.4500       460
  33.4720       420
  33.4940       443
  33.5160       500
  33.5380       463
  33.5600       501
  33.5820       503
  33.6040       501
  33.6260       494
  33.6480       485
  33.6700       541
  33.6920       472
  33.7140       527
  33.7360       518
  33.7580       528
  33.7800       554
  33.8020       520
  33.8240       550
  33.8460       570
  33.8680       569
  33.8900       530
  33.9120       531
  33.9340       550
  33.9560       548
  33.9780       515
  34.0000       535
  34.0220       555
  34.0440       564
  34.0660       608
  34.0880       513
  34.1100       521
  34.1320       550
  34.1540       514
  34.1760       535
  34.1980       500
  34.2200       494
  34.2420       494
  34.2640       489
  34.2860       463
  34.3080       494
  34.3300       464
  34.3520       420
  34.3740       438
  34.3960       450
  34.4180       479
  34.4400       464
  34.4620       415
  34.4840       473
  34.5060       437
  34.5280       436
  34.5500       445
  34.5720       418
  34.5940       468
  34.6160       461
  34.6380       440
  34.6600       459
  34.6820       461
  34.7040       451
  34.7260       420
  34.7480       404
  34.7700       434
  34.7920       411
  34.8140       439
  34.8360       442
  34.8580       406
  34.8800       426
  34.9020       432
  34.9240       398
  34.9460       416
  34.9680       411
  34.9900       403
  35.0120       413
  35.0340       404
  35.0560       417
  35.0780       395
  35.1000       387
  35.1220       389
  35.1440       460
  35.1660       394
  35.1880       423
  35.2100       386
  35.2320       387
  35.2540       401
  35.2760       370
  35.2980       414
  35.3200       430
  35.3420       391
  35.3640       398
  35.3860       447
  35.4080       422
  35.4300       389
  35.4520       400
  35.4740       407
  35.4960       410
  35.5180       393
  35.5400       385
  35.5620       402
  35.5840       387
  35.6060       406
  35.6280       380
  35.6500       377
  35.6720       399
  35.6940       387
  35.7160       382
  35.7380       413
  35.7600       443
  35.7820       406
  35.8040       401
  35.8260       408
  35.8480       408
  35.8700       385
  35.8920       380
  35.9140       382
  35.9360       371
  35.9580       396
  35.9800       392
  36.0020       398
  36.0240       366
  36.0460       408
  36.0680       395
  36.0900       385
  36.1120       397
  36.1340       376
  36.1560       405
  36.1780       397
  36.2000       393
  36.2220       374
  36.2440       381
  36.2660       384
  36.2880       417
  36.3100       416
  36.3320       406
  36.3540       372
  36.3760       414
  36.3980       398
  36.4200       351
  36.4420       422
  36.4640       377
  36.4860       399
  36.5080       367
  36.5300       410
  36.5520       383
  36.5740       385
  36.5960       413
  36.6180       376
  36.6400       394
  36.6620       396
  36.6840       349
  36.7060       388
  36.7280       395
  36.7500       390
  36.7720       365
  36.7940       403
  36.8160       402
  36.8380       383
  36.8600       356
  36.8820       357
  36.9040       413
  36.9260       375
  36.9480       374
  36.9700       410
  36.9920       373
  37.0140       373
  37.0360       402
  37.0580       383
  37.0800       379
  37.1020       381
  37.1240       385
  37.1460       393
  37.1680       427
  37.1900       397
  37.2120       375
  37.2340       411
  37.2560       364
  37.2780       394
  37.3000       388
  37.3220       425
  37.3440       397
  37.3660       425
  37.3880       455
  37.4100       407
  37.4320       431
  37.4540       414
  37.4760       429
  37.4980       449
  37.5200       477
  37.5420       444
  37.5640       443
  37.5860       455
  37.6080       468
  37.6300       477
  37.6520       448
  37.6740       428
  37.6960       423
  37.7180       469
  37.7400       472
  37.7620       420
  37.7840       402
  37.8060       445
  37.8280       426
  37.8500       407
  37.8720       429
  37.8940       411
  37.9160       419
  37.9380       421
  37.9600       420
  37.9820       443
  38.0040       483
  38.0260       444
  38.0480       486
  38.0700       478
  38.0920       513
  38.1140       516
  38.1360       502
  38.1580       514
  38.1800       471
  38.2020       480
  38.2240       518
  38.2460       511
  38.2680       487
  38.2900       489
  38.3120       457
  38.3340       456
  38.3560       479
  38.3780       440
  38.4000       480
  38.4220       449
  38.4440       439
  38.4660       436
  38.4880       415
  38.5100       384
  38.5320       412
  38.5540       422
  38.5760       409
  38.5980       399
  38.6200       470
  38.6420       397
  38.6640       426
  38.6860       388
  38.7080       455
  38.7300       397
  38.7520       366
  38.7740       372
  38.7960       418
  38.8180       410
  38.8400       375
  38.8620       417
  38.8840       368
  38.9060       381
  38.9280       390
  38.9500       390
  38.9720       411
  38.9940       365
  39.0160       398
  39.0380       374
  39.0600       388
  39.0820       383
  39.1040       417
  39.1260       382
  39.1480       409
  39.1700       386
  39.1920       389
  39.2140       383
  39.2360       401
  39.2580       402
  39.2800       399
  39.3020       387
  39.3240       396
  39.3460       399
  39.3680       454
  39.3900       388
  39.4120       394
  39.4340       343
  39.4560       337
  39.4780       401
  39.5000       414
  39.5220       385
  39.5440       384
  39.5660       370
  39.5880       397
  39.6100       406
  39.6320       390
  39.6540       396
  39.6760       401
  39.6980       378
  39.7200       428
  39.7420       408
  39.7640       426
  39.7860       406
  39.8080       410
  39.8300       413
  39.8520       397
  39.8740       438
  39.8960       437
  39.9180       380
  39.9400       415
  39.9620       434
  39.9840       425
  40.0060       428
  40.0280       401
  40.0500       403
  40.0720       417
  40.0940       439
  40.1160       437
  40.1380       398
  40.1600       443
  40.1820       420
  40.2040       390
  40.2260       435
  40.2480       417
  40.2700       429
  40.2920       416
  40.3140       391
  40.3360       445
  40.3580       407
  40.3800       424
  40.4020       428
  40.4240       421
  40.4460       447
  40.4680       431
  40.4900       410
  40.5120       455
  40.5340       452
  40.5560       492
  40.5780       462
  40.6000       446
  40.6220       455
  40.6440       406
  40.6660       432
  40.6880       470
  40.7100       444
  40.7320       500
  40.7540       464
  40.7760       473
  40.7980       437
  40.8200       454
  40.8420       475
  40.8640       499
  40.8860       486
  40.9080       485
  40.9300       465
  40.9520       522
  40.9740       507
  40.9960       507
  41.0180       512
  41.0400       535
  41.0620       547
  41.0840       496
  41.1060       540
  41.1280       600
  41.1500       597
  41.1720       599
  41.1940       582
  41.2160       645
  41.2380       673
  41.2600       630
  41.2820       703
  41.3040       726
  41.3260       726
  41.3480       833
  41.3700       819
  41.3920       897
  41.4140       885
  41.4360      1072
  41.4580      1131
  41.4800      1186
  41.5020      1308
  41.5240      1423
  41.5460      1604
  41.5680      1651
  41.5900      1943
  41.6120      2090
  41.6340      2437
  41.6560      2701
  41.6780      2900
  41.7000      3416
  41.7220      3533
  41.7440      3693
  41.7660      4038
  41.7880      4113
  41.8100      4031
  41.8320      3991
  41.8540      3867
  41.8760      3704
  41.8980      3421
  41.9200      3079
  41.9420      2758
  41.9640      2483
  41.9860      2240
  42.0080      1921
  42.0300      1625
  42.0520      1466
  42.0740      1316
  42.0960      1192
  42.1180      1012
  42.1400       949
  42.1620       882
  42.1840       815
  42.2060       710
  42.2280       679
  42.2500       661
  42.2720       627
  42.2940       593
  42.3160       579
  42.3380       580
  42.3600       523
  42.3820       541
  42.4040       516
  42.4260       524
  42.4480       525
  42.4700       498
  42.4920       525
  42.5140       459
  42.5360       467
  42.5580       463
  42.5800       487
  42.6020       492
  42.6240       452
  42.6460       435
  42.6680       446
  42.6900       448
  42.7120       425
  42.7340       496
  42.7560       421
  42.7780       426
  42.8000       444
  42.8220       484
  42.8440       453
  42.8660       443
  42.8880       439
  42.9100       437
  42.9320       437
  42.9540       399
  42.9760       387
  42.9980       397
  43.0200       416
  43.0420       422
  43.0640       456
  43.0860       432
  43.1080       426
  43.1300       416
  43.1520       453
  43.1740       408
  43.1960       427
  43.2180       403
  43.2400       426
  43.2620       445
  43.2840       428
  43.3060       415
  43.3280       432
  43.3500       423
  43.3720       438
  43.3940       457
  43.4160       405
  43.4380       421
  43.4600       403
  43.4820       471
  43.5040       437
  43.5260       470
  43.5480       476
  43.5700       434
  43.5920       434
  43.6140       435
  43.6360       460
  43.6580       434
  43.6800       457
  43.7020       437
  43.7240       413
  43.7460       424
  43.7680       449
  43.7900       447
  43.8120       404
  43.8340       462
  43.8560       427
  43.8780       407
  43.9000       440
  43.9220       404
  43.9440       416
  43.9660       385
  43.9880       423
  44.0100       428
  44.0320       423
  44.0540       399
  44.0760       402
  44.0980       401
  44.1200       439
  44.1420       400
  44.1640       394
  44.1860       450
  44.2080       429
  44.2300       419
  44.2520       443
  44.2740       458
  44.2960       462
  44.3180       420
  44.3400       454
  44.3620       446
  44.3840       459
  44.4060       441
  44.4280       431
  44.4500       455
  44.4720       442
  44.4940       396
  44.5160       418
  44.5380       400
  44.5600       431
  44.5820       400
  44.6040       429
  44.6260       441
  44.6480       415
  44.6700       397
  44.6920       404
  44.7140       422
  44.7360       406
  44.7580       415
  44.7800       417
  44.8020       398
  44.8240       408
  44.8460       372
  44.8680       412
  44.8900       402
  44.9120       385
  44.9340       417
  44.9560       416
  44.9780       413
  45.0000       417
  45.0220       398
  45.0440       431
  45.0660       399
  45.0880       409
  45.1100       381
  45.1320       402
  45.1540       421
  45.1760       429
  45.1980       375
  45.2200       395
  45.2420       358
  45.2640       411
  45.2860       380
  45.3080       400
  45.3300       388
  45.3520       419
  45.3740       399
  45.3960       385
  45.4180       354
  45.4400       386
  45.4620       379
  45.4840       367
  45.5060       426
  45.5280       372
  45.5500       414
  45.5720       401
  45.5940       399
  45.6160       380
  45.6380       413
  45.6600       386
  45.6820       432
  45.7040       364
  45.7260       404
  45.7480       453
  45.7700       418
  45.7920       417
  45.8140       426
  45.8360       384
  45.8580       420
  45.8800       391
  45.9020       413
  45.9240       394
  45.9460       424
  45.9680       387
  45.9900       416
  46.0120       413
  46.0340       415
  46.0560       396
  46.0780       395
  46.1000       442
  46.1220       450
  46.1440       396
  46.1660       405
  46.1880       464
  46.2100       439
  46.2320       434
  46.2540       367
  46.2760       393
  46.2980       421
  46.3200       403
  46.3420       407
  46.3640       414
  46.3860       408
  46.4080       410
  46.4300       385
  46.4520       435
  46.4740       403
  46.4960       416
  46.5180       400
  46.5400       400
  46.5620       425
  46.5840       384
  46.6060       394
  46.6280       415
  46.6500       441
  46.6720       418
  46.6940       428
  46.7160       395
  46.7380       417
  46.7600       437
  46.7820       458
  46.8040       372
  46.8260       416
  46.8480       409
  46.8700       441
  46.8920       440
  46.9140       413
  46.9360       409
  46.9580       440
  46.9800       444
  47.0020       423
  47.0240       449
  47.0460       405
  47.0680       433
  47.0900       419
  47.1120       487
  47.1340       434
  47.1560       432
  47.1780       450
  47.2000       464
  47.2220       466
  47.2440       456
  47.2660       474
  47.2880       478
  47.3100       458
  47.3320       485
  47.3540       431
  47.3760       462
  47.3980       436
  47.4200       455
  47.4420       475
  47.4640       477
  47.4860       501
  47.5080       477
  47.5300       474
  47.5520       482
  47.5740       523
  47.5960       481
  47.6180       519
  47.6400       519
  47.6620       528
  47.6840       496
  47.7060       516
  47.7280       517
  47.7500       541
  47.7720       538
  47.7940       591
  47.8160       549
  47.8380       574
  47.8600       585
  47.8820       575
  47.9040       608
  47.9260       597
  47.9480       664
  47.9700       644
  47.9920       716
  48.0140       697
  48.0360       746
  48.0580       819
  48.0800       781
  48.1020       810
  48.1240       835
  48.1460       923
  48.1680       988
  48.1900      1035
  48.2120      1037
  48.2340      1113
  48.2560      1171
  48.2780      1164
  48.3000      1249
  48.3220      1416
  48.3440      1479
  48.3660      1551
  48.3880      1667
  48.4100      1758
  48.4320      1737
  48.4540      1935
  48.4760      2089
  48.4980      2178
  48.5200      2180
  48.5420      2213
  48.5640      2254
  48.5860      2323
  48.6080      2379
  48.6300      2290
  48.6520      2227
  48.6740      2227
  48.6960      2267
  48.7180      2147
  48.7400      1995
  48.7620      1931
  48.7840      1890
  48.8060      1642
  48.8280      1593
  48.8500      1529
  48.8720      1400
  48.8940      1311
  48.9160      1145
  48.9380      1111
  48.9600       953
  48.9820       895
  49.0040       898
  49.0260       861
  49.0480       768
  49.0700       766
  49.0920       759
  49.1140       725
  49.1360       674
  49.1580       642
  49.1800       610
  49.2020       602
  49.2240       583
  49.2460       572
  49.2680       531
  49.2900       559
  49.3120       492
  49.3340       533
  49.3560       521
  49.3780       489
  49.4000       510
  49.4220       471
  49.4440       498
  49.4660       508
  49.4880       499
  49.5100       482
  49.5320       435
  49.5540       502
  49.5760       460
  49.5980       496
  49.6200       456
  49.6420       439
  49.6640       436
  49.6860       475
  49.7080       415
  49.7300       414
  49.7520       402
  49.7740       409
  49.7960       450
  49.8180       431
  49.8400       440
  49.8620       422
  49.8840       475
  49.9060       416
  49.9280       377
  49.9500       451
  49.9720       418
  49.9940       453
  50.0160       429
  50.0380       400
  50.0600       436
  50.0820       387
  50.1040       415
  50.1260       448
  50.1480       439
  50.1700       434
  50.1920       386
  50.2140       448
  50.2360       414
  50.2580       429
  50.2800       344
  50.3020       414
  50.3240       422
  50.3460       422
  50.3680       402
  50.3900       395
  50.4120       351
  50.4340       399
  50.4560       386
  50.4780       411
  50.5000       422
  50.5220       400
  50.5440       392
  50.5660       389
  50.5880       401
  50.6100       370
  50.6320       367
  50.6540       430
  50.6760       402
  50.6980       378
  50.7200       421
  50.7420       386
  50.7640       401
  50.7860       435
  50.8080       384
  50.8300       453
  50.8520       391
  50.8740       402
  50.8960       350
  50.9180       398
  50.9400       402
  50.9620       430
  50.9840       432
  51.0060       346
  51.0280       407
  51.0500       386
  51.0720       424
  51.0940       405
  51.1160       377
  51.1380       400
  51.1600       403
  51.1820       405
  51.2040       407
  51.2260       448
  51.2480       364
  51.2700       382
  51.2920       433
  51.3140       410
  51.3360       418
  51.3580       389
  51.3800       387
  51.4020       363
  51.4240       385
  51.4460       401
  51.4680       415
  51.4900       396
  51.5120       396
  51.5340       407
  51.5560       398
  51.5780       366
  51.6000       426
  51.6220       432
  51.6440       342
  51.6660       398
  51.6880       374
  51.7100       391
  51.7320       366
  51.7540       381
  51.7760       420
  51.7980       395
  51.8200       399
  51.8420       406
  51.8640       379
  51.8860       391
  51.9080       425
  51.9300       425
  51.9520       435
  51.9740       407
  51.9960       413
  52.0180       394
  52.0400       438
  52.0620       399
  52.0840       408
  52.1060       396
  52.1280       412
  52.1500       409
  52.1720       403
  52.1940       393
  52.2160       416
  52.2380       369
  52.2600       370
  52.2820       391
  52.3040       424
  52.3260       417
  52.3480       431
  52.3700       384
  52.3920       371
  52.4140       402
  52.4360       418
  52.4580       433
  52.4800       397
  52.5020       419
  52.5240       393
  52.5460       368
  52.5680       415
  52.5900       388
  52.6120       385
  52.6340       409
  52.6560       409
  52.6780       440
  52.7000       403
  52.7220       438
  52.7440       428
  52.7660       404
  52.7880       424
  52.8100       403
  52.8320       438
  52.8540       389
  52.8760       387
  52.8980       422
  52.9200       362
  52.9420       416
  52.9640       399
  52.9860       420
  53.0080       433
  53.0300       435
  53.0520       407
  53.0740       420
  53.0960       393
  53.1180       424
  53.1400       436
  53.1620       431
  53.1840       416
  53.2060       408
  53.2280       425
  53.2500       424
  53.2720       388
  53.2940       414
  53.3160       398
  53.3380       419
  53.3600       386
  53.3820       423
  53.4040       425
  53.4260       430
  53.4480       424
  53.4700       432
  53.4920       400
  53.5140       439
  53.5360       421
  53.5580       415
  53.5800       416
  53.6020       437
  53.6240       422
  53.6460       390
  53.6680       428
  53.6900       448
  53.7120       419
  53.7340       417
  53.7560       397
  53.7780       443
  53.8000       400
  53.8220       427
  53.8440       391
  53.8660       445
  53.8880       409
  53.9100       461
  53.9320       434
  53.9540       434
  53.9760       429
  53.9980       400
  54.0200       446
  54.0420       452
  54.0640       400
  54.0860       423
  54.1080       435
  54.1300       447
  54.1520       431
  54.1740       484
  54.1960       452
  54.2180       429
  54.2400       419
  54.2620       461
  54.2840       440
  54.3060       444
  54.3280       449
  54.3500       504
  54.3720       468
  54.3940       451
  54.4160       432
  54.4380       476
  54.4600       486
  54.4820       483
  54.5040       474
  54.5260       467
  54.5480       548
  54.5700       488
  54.5920       526
  54.6140       486
  54.6360       512
  54.6580       548
  54.6800       571
  54.7020       583
  54.7240       579
  54.7460       538
  54.7680       541
  54.7900       551
  54.8120       550
  54.8340       553
  54.8560       542
  54.8780       561
  54.9000       596
  54.9220       573
  54.9440       539
  54.9660       560
  54.9880       557
  55.0100       520
  55.0320       498
  55.0540       531
  55.0760       549
  55.0980       516
  55.1200       503
  55.1420       474
  55.1640       524
  55.1860       520
  55.2080       528
  55.2300       492
  55.2520       497
  55.2740       475
  55.2960       420
  55.3180       474
  55.3400       418
  55.3620       466
  55.3840       463
  55.4060       455
  55.4280       450
  55.4500       416
  55.4720       430
  55.4940       422
  55.5160       498
  55.5380       447
  55.5600       393
  55.5820       462
  55.6040       438
  55.6260       441
  55.6480       438
  55.6700       427
  55.6920       395
  55.7140       437
  55.7360       412
  55.7580       388
  55.7800       465
  55.8020       392
  55.8240       411
  55.8460       424
  55.8680       406
  55.8900       421
  55.9120       384
  55.9340       427
  55.9560       429
  55.9780       437
  56.0000       424
  56.0220       456
  56.0440       387
  56.0660       412
  56.0880       438
  56.1100       392
  56.1320       441
  56.1540       426
  56.1760       392
  56.1980       394
  56.2200       451
  56.2420       408
  56.2640       418
  56.2860       363
  56.3080       394
  56.3300       385
  56.3520       410
  56.3740       440
  56.3960       428
  56.4180       419
  56.4400       418
  56.4620       373
  56.4840       428
  56.5060       423
  56.5280       411
  56.5500       423
  56.5720       447
  56.5940       404
  56.6160       412
  56.6380       472
  56.6600       418
  56.6820       372
  56.7040       398
  56.7260       405
  56.7480       425
  56.7700       453
  56.7920       407
  56.8140       393
  56.8360       406
  56.8580       417
  56.8800       383
  56.9020       444
  56.9240       400
  56.9460       412
  56.9680       413
  56.9900       447
  57.0120       379
  57.0340       376
  57.0560       406
  57.0780       407
  57.1000       408
  57.1220       392
  57.1440       391
  57.1660       373
  57.1880       382
  57.2100       404
  57.2320       390
  57.2540       392
  57.2760       400
  57.2980       424
  57.3200       439
  57.3420       406
  57.3640       405
  57.3860       409
  57.4080       397
  57.4300       414
  57.4520       396
  57.4740       412
  57.4960       439
  57.5180       365
  57.5400       414
  57.5620       415
  57.5840       397
  57.6060       438
  57.6280       409
  57.6500       409
  57.6720       387
  57.6940       398
  57.7160       399
  57.7380       430
  57.7600       425
  57.7820       420
  57.8040       401
  57.8260       425
  57.8480       413
  57.8700       445
  57.8920       394
  57.9140       423
  57.9360       399
  57.9580       416
  57.9800       443
  58.0020       392
  58.0240       416
  58.0460       404
  58.0680       406
  58.0900       413
  58.1120       399
  58.1340       393
  58.1560       378
  58.1780       393
  58.2000       428
  58.2220       402
  58.2440       390
  58.2660       399
  58.2880       427
  58.3100       417
  58.3320       416
  58.3540       382
  58.3760       410
  58.3980       400
  58.4200       418
  58.4420       414
  58.4640       412
  58.4860       396
  58.5080       403
  58.5300       401
  58.5520       397
  58.5740       396
  58.5960       443
  58.6180       425
  58.6400       402
  58.6620       439
  58.6840       392
  58.7060       415
  58.7280       396
  58.7500       415
  58.7720       400
  58.7940       432
  58.8160       401
  58.8380       417
  58.8600       419
  58.8820       398
  58.9040       390
  58.9260       406
  58.9480       475
  58.9700       403
  58.9920       383
  59.0140       398
  59.0360       372
  59.0580       395
  59.0800       416
  59.1020       404
  59.1240       407
  59.1460       442
  59.1680       429
  59.1900       379
  59.2120       368
  59.2340       386
  59.2560       430
  59.2780       403
  59.3000       376
  59.3220       438
  59.3440       368
  59.3660       401
  59.3880       360
  59.4100       404
  59.4320       435
  59.4540       447
  59.4760       440
  59.4980       404
  59.5200       392
  59.5420       433
  59.5640       456
  59.5860       415
  59.6080       392
  59.6300       420
  59.6520       425
  59.6740       395
  59.6960       432
  59.7180       415
  59.7400       395
  59.7620       389
  59.7840       414
  59.8060       390
  59.8280       444
  59.8500       387
  59.8720       417
  59.8940       423
  59.9160       406
  59.9380       444
  59.9600       417
  59.9820       424
  60.0040       430
  60.0260       446
  60.0480       420
  60.0700       444
  60.0920       402
  60.1140       440
  60.1360       455
  60.1580       436
  60.1800       401
  60.2020       473
  60.2240       479
  60.2460       420
  60.2680       472
  60.2900       443
  60.3120       451
  60.3340       509
  60.3560       514
  60.3780       464
  60.4000       486
  60.4220       468
  60.4440       485
  60.4660       518
  60.4880       493
  60.5100       514
  60.5320       530
  60.5540       523
  60.5760       492
  60.5980       526
  60.6200       531
  60.6420       490
  60.6640       511
  60.6860       474
  60.7080       516
  60.7300       504
  60.7520       516
  60.7740       513
  60.7960       467
  60.8180       475
  60.8400       458
  60.8620       447
  60.8840       480
  60.9060       464
  60.9280       437
  60.9500       472
  60.9720       452
  60.9940       462
  61.0160       450
  61.0380       428
  61.0600       394
  61.0820       416
  61.1040       428
  61.1260       430
  61.1480       444
  61.1700       476
  61.1920       455
  61.2140       448
  61.2360       400
  61.2580       400
  61.2800       447
  61.3020       427
  61.3240       427
  61.3460       410
  61.3680       411
  61.3900       427
  61.4120       444
  61.4340       384
  61.4560       373
  61.4780       430
  61.5000       404
  61.5220       430
  61.5440       413
  61.5660       415
  61.5880       445
  61.6100       435
  61.6320       454
  61.6540       421
  61.6760       407
  61.6980       420
  61.7200       403
  61.7420       431
  61.7640       426
  61.7860       435
  61.8080       418
  61.8300       406
  61.8520       395
  61.8740       444
  61.8960       436
  61.9180       384
  61.9400       394
  61.9620       417
  61.9840       409
  62.0060       381
  62.0280       413
  62.0500       375
  62.0720       432
  62.0940       439
  62.1160       398
  62.1380       397
  62.1600       439
  62.1820       405
  62.2040       423
  62.2260       432
  62.2480       418
  62.2700       430
  62.2920       424
  62.3140       391
  62.3360       431
  62.3580       447
  62.3800       404
  62.4020       403
  62.4240       398
  62.4460       380
  62.4680       401
  62.4900       398
  62.5120       418
  62.5340       394
  62.5560       396
  62.5780       377
  62.6000       417
  62.6220       420
  62.6440       371
  62.6660       399
  62.6880       378
  62.7100       440
  62.7320       401
  62.7540       397
  62.7760       404
  62.7980       416
  62.8200       381
  62.8420       420
  62.8640       408
  62.8860       396
  62.9080       415
  62.9300       427
  62.9520       477
  62.9740       382
  62.9960       410
  63.0180       416
  63.0400       407
  63.0620       403
  63.0840       419
  63.1060       390
  63.1280       404
  63.1500       403
  63.1720       397
  63.1940       400
  63.2160       422
  63.2380       414
  63.2600       425
  63.2820       449
  63.3040       395
  63.3260       410
  63.3480       412
  63.3700       426
  63.3920       400
  63.4140       424
  63.4360       445
  63.4580       429
  63.4800       389
  63.5020       432
  63.5240       463
  63.5460       417
  63.5680       431
  63.5900       455
  63.6120       427
  63.6340       422
  63.6560       441
  63.6780       388
  63.7000       406
  63.7220       432
  63.7440       437
  63.7660       433
  63.7880       426
  63.8100       413
  63.8320       379
  63.8540       437
  63.8760       402
  63.8980       442
  63.9200       407
  63.9420       405
  63.9640       394
  63.9860       397
  64.0080       386
  64.0300       465
  64.0520       437
  64.0740       432
  64.0960       404
  64.1180       424
  64.1400       440
  64.1620       410
  64.1840       444
  64.2060       412
  64.2280       427
  64.2500       390
  64.2720       413
  64.2940       384
  64.3160       419
  64.3380       408
  64.3600       444
  64.3820       411
  64.4040       455
  64.4260       439
  64.4480       430
  64.4700       474
  64.4920       426
  64.5140       446
  64.5360       420
  64.5580       458
  64.5800       445
  64.6020       426
  64.6240       441
  64.6460       436
  64.6680       431
  64.6900       427
  64.7120       419
  64.7340       459
  64.7560       426
  64.7780       408
  64.8000       422
  64.8220       408
  64.8440       400
  64.8660       459
  64.8880       438
  64.9100       412
  64.9320       444
  64.9540       377
  64.9760       411
  64.9980       437
  65.0200       441
  65.0420       399
  65.0640       407
  65.0860       386
  65.1080       432
  65.1300       382
  65.1520       432
  65.1740       390
  65.1960       413
  65.2180       404
  65.2400       411
  65.2620       424
  65.2840       403
  65.3060       408
  65.3280       406
  65.3500       407
  65.3720       423
  65.3940       428
  65.4160       364
  65.4380       422
  65.4600       406
  65.4820       361
  65.5040       361
  65.5260       385
  65.5480       419
  65.5700       385
  65.5920       393
  65.6140       402
  65.6360       412
  65.6580       397
  65.6800       402
  65.7020       390
  65.7240       396
  65.7460       381
  65.7680       405
  65.7900       424
  65.8120       415
  65.8340       386
  65.8560       397
  65.8780       402
  65.9000       388
  65.9220       410
  65.9440       395
  65.9660       431
  65.9880       409
  66.0100       394
  66.0320       398
  66.0540       423
  66.0760       441
  66.0980       426
  66.1200       402
  66.1420       369
  66.1640       421
  66.1860       388
  66.2080       382
  66.2300       395
  66.2520       418
  66.2740       382
  66.2960       429
  66.3180       393
  66.3400       373
  66.3620       462
  66.3840       441
  66.4060       410
  66.4280       404
  66.4500       438
  66.4720       443
  66.4940       402
  66.5160       409
  66.5380       424
  66.5600       417
  66.5820       440
  66.6040       404
  66.6260       410
  66.6480       402
  66.6700       393
  66.6920       425
  66.7140       445
  66.7360       435
  66.7580       432
  66.7800       390
  66.8020       397
  66.8240       412
  66.8460       420
  66.8680       370
  66.8900       394
  66.9120       411
  66.9340       423
  66.9560       386
  66.9780       397
  67.0000       402
  67.0220       374
  67.0440       413
  67.0660       433
  67.0880       403
  67.1100       406
  67.1320       380
  67.1540       403
  67.1760       414
  67.1980       383
  67.2200       395
  67.2420       438
  67.2640       395
  67.2860       418
  67.3080       403
  67.3300       403
  67.3520       412
  67.3740       412
  67.3960       381
  67.4180       400
  67.4400       447
  67.4620       399
  67.4840       430
  67.5060       380
  67.5280       454
  67.5500       424
  67.5720       408
  67.5940       366
  67.6160       407
  67.6380       403
  67.6600       380
  67.6820       448
  67.7040       375
  67.7260       375
  67.7480       399
  67.7700       401
  67.7920       425
  67.8140       416
  67.8360       442
  67.8580       422
  67.8800       393
  67.9020       439
  67.9240       405
  67.9460       400
  67.9680       386
  67.9900       428
  68.0120       373
  68.0340       414
  68.0560       392
  68.0780       427
  68.1000       393
  68.1220       428
  68.1440       419
  68.1660       412
  68.1880       416
  68.2100       442
  68.2320       388
  68.2540       400
  68.2760       432
  68.2980       415
  68.3200       402
  68.3420       446
  68.3640       391
  68.3860       385
  68.4080       404
  68.4300       384
  68.4520       394
  68.4740       396
  68.4960       444
  68.5180       381
  68.5400       430
  68.5620       421
  68.5840       417
  68.6060       407
  68.6280       417
  68.6500       404
  68.6720       416
  68.6940       395
  68.7160       387
  68.7380       404
  68.7600       423
  68.7820       390
  68.8040       441
  68.8260       433
  68.8480       437
  68.8700       417
  68.8920       447
  68.9140       397
  68.9360       421
  68.9580       428
  68.9800       430
  69.0020       432
  69.0240       439
  69.0460       416
  69.0680       421
  69.0900       460
  69.1120       405
  69.1340       391
  69.1560       396
  69.1780       458
  69.2000       426
  69.2220       402
  69.2440       449
  69.2660       402
  69.2880       425
  69.3100       395
  69.3320       444
  69.3540       450
  69.3760       408
  69.3980       432
  69.4200       404
  69.4420       426
  69.4640       378
  69.4860       402
  69.5080       426
  69.5300       457
  69.5520       436
  69.5740       401
  69.5960       446
  69.6180       400
  69.6400       467
  69.6620       420
  69.6840       404
  69.7060       397
  69.7280       429
  69.7500       424
  69.7720       440
  69.7940       432
  69.8160       439
  69.8380       463
  69.8600       440
  69.8820       451
  69.9040       466
  69.9260       435
  69.9480       409
  69.9700       446
  69.9920       429
  70.0140       421
  70.0360       426
  70.0580       425
  70.0800       429
  70.1020       451
  70.1240       413
  70.1460       487
  70.1680       448
  70.1900       474
  70.2120       459
  70.2340       440
  70.2560       433
  70.2780       441
  70.3000       458
  70.3220       420
  70.3440       453
  70.3660       463
  70.3880       464
  70.4100       470
  70.4320       465
  70.4540       457
  70.4760       492
  70.4980       468
  70.5200       513
  70.5420       511
  70.5640       555
  70.5860       527
  70.6080       536
  70.6300       543
  70.6520       520
  70.6740       589
  70.6960       568
  70.7180       557
  70.7400       578
  70.7620       678
  70.7840       719
  70.8060       644
  70.8280       665
  70.8500       680
  70.8720       725
  70.8940       817
  70.9160       836
  70.9380       810
  70.9600       890
  70.9820       989
  71.0040       967
  71.0260      1043
  71.0480      1061
  71.0700      1121
  71.0920      1251
  71.1140      1231
  71.1360      1235
  71.1580      1371
  71.1800      1309
  71.2020      1285
  71.2240      1284
  71.2460      1348
  71.2680      1361
  71.2900      1309
  71.3120      1266
  71.3340      1192
  71.3560      1226
  71.3780      1157
  71.4000      1089
  71.4220      1071
  71.4440      1116
  71.4660       985
  71.4880       920
  71.5100       912
  71.5320       891
  71.5540       797
  71.5760       812
  71.5980       767
  71.6200       693
  71.6420       652
  71.6640       640
  71.6860       599
  71.7080       586
  71.7300       592
  71.7520       496
  71.7740       570
  71.7960       506
  71.8180       521
  71.8400       503
  71.8620       504
  71.8840       466
  71.9060       532
  71.9280       455
  71.9500       479
  71.9720       478
  71.9940       435
  72.0160       455
  72.0380       447
  72.0600       438
  72.0820       459
  72.1040       457
  72.1260       427
  72.1480       471
  72.1700       408
  72.1920       454
  72.2140       449
  72.2360       427
  72.2580       423
  72.2800       427
  72.3020       398
  72.3240       439
  72.3460       410
  72.3680       458
  72.3900       415
  72.4120       389
  72.4340       440
  72.4560       422
  72.4780       414
  72.5000       404
  72.5220       404
  72.5440       430
  72.5660       416
  72.5880       411
  72.6100       432
  72.6320       446
  72.6540       410
  72.6760       435
  72.6980       421
  72.7200       409
  72.7420       479
  72.7640       442
  72.7860       389
  72.8080       419
  72.8300       387
  72.8520       442
  72.8740       448
  72.8960       413
  72.9180       428
  72.9400       440
  72.9620       434
  72.9840       385
  73.0060       421
  73.0280       426
  73.0500       413
  73.0720       417
  73.0940       435
  73.1160       404
  73.1380       400
  73.1600       422
  73.1820       423
  73.2040       420
  73.2260       421
  73.2480       394
  73.2700       424
  73.2920       429
  73.3140       427
  73.3360       422
  73.3580       415
  73.3800       430
  73.4020       419
  73.4240       436
  73.4460       417
  73.4680       412
  73.4900       452
  73.5120       375
  73.5340       416
  73.5560       424
  73.5780       379
  73.6000       373
  73.6220       424
  73.6440       385
  73.6660       459
  73.6880       431
  73.7100       392
  73.7320       402
  73.7540       410
  73.7760       421
  73.7980       420
  73.8200       420
  73.8420       400
  73.8640       420
  73.8860       365
  73.9080       378
  73.9300       437
  73.9520       413
  73.9740       390
  73.9960       387
  74.0180       415
  74.0400       439
  74.0620       398
  74.0840       434
  74.1060       412
  74.1280       420
  74.1500       432
  74.1720       379
  74.1940       406
  74.2160       411
  74.2380       429
  74.2600       398
  74.2820       402
  74.3040       415
  74.3260       402
  74.3480       418
  74.3700       430
  74.3920       414
  74.4140       403
  74.4360       438
  74.4580       420
  74.4800       366
  74.5020       430
  74.5240       435
  74.5460       435
  74.5680       417
  74.5900       390
  74.6120       450
  74.6340       426
  74.6560       425
  74.6780       428
  74.7000       401
  74.7220       440
  74.7440       421
  74.7660       456
  74.7880       417
  74.8100       406
  74.8320       414
  74.8540       433
  74.8760       444
  74.8980       455
  74.9200       424
  74.9420       389
  74.9640       480
  74.9860       389
  75.0080       402
  75.0300       439
  75.0520       416
  75.0740       418
  75.0960       410
  75.1180       431
  75.1400       387
  75.1620       421
  75.1840       408
  75.2060       423
  75.2280       450
  75.2500       418
  75.2720       401
  75.2940       422
  75.3160       441
  75.3380       422
  75.3600       425
  75.3820       410
  75.4040       421
  75.4260       390
  75.4480       412
  75.4700       405
  75.4920       430
  75.5140       404
  75.5360       439
  75.5580       403
  75.5800       476
  75.6020       436
  75.6240       413
  75.6460       405
  75.6680       434
  75.6900       433
  75.7120       429
  75.7340       435
  75.7560       436
  75.7780       453
  75.8000       456
  75.8220       428
  75.8440       414
  75.8660       426
  75.8880       424
  75.9100       470
  75.9320       458
  75.9540       453
  75.9760       483
  75.9980       435
  76.0200       473
  76.0420       461
  76.0640       475
  76.0860       530
  76.1080       482
  76.1300       452
  76.1520       508
  76.1740       474
  76.1960       499
  76.2180       466
  76.2400       491
  76.2620       477
  76.2840       494
  76.3060       484
  76.3280       494
  76.3500       485
  76.3720       461
  76.3940       459
  76.4160       486
  76.4380       542
  76.4600       506
  76.4820       465
  76.5040       499
  76.5260       491
  76.5480       461
  76.5700       503
  76.5920       432
  76.6140       496
  76.6360       447
  76.6580       451
  76.6800       439
  76.7020       484
  76.7240       452
  76.7460       436
  76.7680       474
  76.7900       444
  76.8120       447
  76.8340       427
  76.8560       443
  76.8780       427
  76.9000       421
  76.9220       406
  76.9440       463
  76.9660       418
  76.9880       417
  77.0100       456
  77.0320       428
  77.0540       452
  77.0760       442
  77.0980       418
  77.1200       429
  77.1420       438
  77.1640       401
  77.1860       425
  77.2080       457
  77.2300       394
  77.2520       454
  77.2740       451
  77.2960       409
  77.3180       462
  77.3400       411
  77.3620       427
  77.3840       442
  77.4060       451
  77.4280       438
  77.4500       477
  77.4720       436
  77.4940       472
  77.5160       421
  77.5380       437
  77.5600       431
  77.5820       430
  77.6040       440
  77.6260       430
  77.6480       424
  77.6700       436
  77.6920       451
  77.7140       434
  77.7360       400
  77.7580       421
  77.7800       424
  77.8020       472
  77.8240       427
  77.8460       386
  77.8680       436
  77.8900       450
  77.9120       407
  77.9340       414
  77.9560       432
  77.9780       379
  78.0000       410
  78.0220       425
  78.0440       405
  78.0660       416
  78.0880       422
  78.1100       418
  78.1320       369
  78.1540       411
  78.1760       414
  78.1980       417
  78.2200       410
  78.2420       409
  78.2640       450
  78.2860       422
  78.3080       397
  78.3300       437
  78.3520       417
  78.3740       456
  78.3960       420
  78.4180       402
  78.4400       407
  78.4620       402
  78.4840       401
  78.5060       427
  78.5280       408
  78.5500       404
  78.5720       403
  78.5940       418
  78.6160       423
  78.6380       409
  78.6600       436
  78.6820       403
  78.7040       400
  78.7260       398
  78.7480       391
  78.7700       402
  78.7920       408
  78.8140       431
  78.8360       457
  78.8580       437
  78.8800       417
  78.9020       406
  78.9240       411
  78.9460       431
  78.9680       409
  78.9900       442
  79.0120       381
  79.0340       405
  79.0560       441
  79.0780       436
  79.1000       392
  79.1220       389
  79.1440       441
  79.1660       397
  79.1880       441
  79.2100       413
  79.2320       453
  79.2540       402
  79.2760       410
  79.2980       436
  79.3200       425
  79.3420       397
  79.3640       399
  79.3860       411
  79.4080       380
  79.4300       495
  79.4520       405
  79.4740       426
  79.4960       381
  79.5180       430
  79.5400       397
  79.5620       422
  79.5840       432
  79.6060       425
  79.6280       419
  79.6500       377
  79.6720       433
  79.6940       401
  79.7160       434
  79.7380       429
  79.7600       416
  79.7820       426
  79.8040       420
  79.8260       406
  79.8480       426
  79.8700       424
  79.8920       434
  79.9140       433
  79.9360       420
  79.9580       396
  79.9800       406
  80.0020       412
  80.0240       427
  80.0460       471
  80.0680       414
  80.0900       387
  80.1120       431
  80.1340       406
  80.1560       432
  80.1780       439
  80.2000       404
  80.2220       461
  80.2440       413
  80.2660       433
  80.2880       451
  80.3100       430
  80.3320       420
  80.3540       407
  80.3760       457
  80.3980       441
  80.4200       416
  80.4420       415
  80.4640       437
  80.4860       403
  80.5080       405
  80.5300       421
  80.5520       424
  80.5740       439
  80.5960       462
  80.6180       457
  80.6400       395
  80.6620       425
  80.6840       459
  80.7060       437
  80.7280       430
  80.7500       416
  80.7720       410
  80.7940       399
  80.8160       462
  80.8380       453
  80.8600       432
  80.8820       433
  80.9040       430
  80.9260       465
  80.9480       409
  80.9700       484
  80.9920       445
  81.0140       469
  81.0360       447
  81.0580       442
  81.0800       482
  81.1020       464
  81.1240       428
  81.1460       431
  81.1680       482
  81.1900       439
  81.2120       466
  81.2340       440
  81.2560       448
  81.2780       427
  81.3000       487
  81.3220       427
  81.3440       440
  81.3660       434
  81.3880       438
  81.4100       462
  81.4320       451
  81.4540       480
  81.4760       466
  81.4980       440
  81.5200       462
  81.5420       431
  81.5640       428
  81.5860       418
  81.6080       415
  81.6300       446
  81.6520       467
  81.6740       401
  81.6960       454
  81.7180       455
  81.7400       427
  81.7620       469
  81.7840       431
  81.8060       458
  81.8280       431
  81.8500       443
  81.8720       404
  81.8940       481
  81.9160       415
  81.9380       420
  81.9600       437
  81.9820       438
  82.0040       413
  82.0260       394
  82.0480       400
  82.0700       433
  82.0920       428
  82.1140       414
  82.1360       421
  82.1580       435
  82.1800       435
  82.2020       443
  82.2240       405
  82.2460       398
  82.2680       399
  82.2900       427
  82.3120       443
  82.3340       421
  82.3560       457
  82.3780       450
  82.4000       413
  82.4220       442
  82.4440       453
  82.4660       445
  82.4880       442
  82.5100       433
  82.5320       468
  82.5540       393
  82.5760       408
  82.5980       436
  82.6200       403
  82.6420       433
  82.6640       426
  82.6860       429
  82.7080       409
  82.7300       422
  82.7520       425
  82.7740       431
  82.7960       402
  82.8180       426
  82.8400       414
  82.8620       414
  82.8840       428
  82.9060       457
  82.9280       443
  82.9500       441
  82.9720       423
  82.9940       451
  83.0160       410
  83.0380       408
  83.0600       391
  83.0820       437
  83.1040       406
  83.1260       404
  83.1480       418
  83.1700       453
  83.1920       388
  83.2140       424
  83.2360       393
  83.2580       404
  83.2800       421
  83.3020       415
  83.3240       403
  83.3460       410
  83.3680       429
  83.3900       428
  83.4120       358
  83.4340       402
  83.4560       447
  83.4780       438
  83.5000       448
  83.5220       418
  83.5440       449
  83.5660       398
  83.5880       428
  83.6100       454
  83.6320       405
  83.6540       416
  83.6760       451
  83.6980       409
  83.7200       409
  83.7420       426
  83.7640       435
  83.7860       447
  83.8080       425
  83.8300       417
  83.8520       432
  83.8740       405
  83.8960       471
  83.9180       404
  83.9400       448
  83.9620       418
  83.9840       458
  84.0060       434
  84.0280       432
  84.0500       431
  84.0720       388
  84.0940       458
  84.1160       426
  84.1380       414
  84.1600       452
  84.1820       413
  84.2040       431
  84.2260       440
  84.2480       440
  84.2700       414
  84.2920       427
  84.3140       416
  84.3360       457
  84.3580       450
  84.3800       436
  84.4020       447
  84.4240       416
  84.4460       437
  84.4680       424
  84.4900       401
  84.5120       438
  84.5340       452
  84.5560       433
  84.5780       446
  84.6000       439
  84.6220       457
  84.6440       431
  84.6660       452
  84.6880       442
  84.7100       483
  84.7320       484
  84.7540       472
  84.7760       454
  84.7980       476
  84.8200       470
  84.8420       484
  84.8640       470
  84.8860       465
  84.9080       492
  84.9300       510
  84.9520       451
  84.9740       453
  84.9960       444
  85.0180       509
  85.0400       508
  85.0620       488
  85.0840       501
  85.1060       537
  85.1280       479
  85.1500       518
  85.1720       559
  85.1940       474
  85.2160       526
  85.2380       515
  85.2600       497
  85.2820       556
  85.3040       555
  85.3260       541
  85.3480       519
  85.3700       532
  85.3920       557
  85.4140       551
  85.4360       597
  85.4580       664
  85.4800       596
  85.5020       622
  85.5240       662
  85.5460       681
  85.5680       731
  85.5900       712
  85.6120       730
  85.6340       772
  85.6560       728
  85.6780       736
  85.7000       822
  85.7220       856
  85.7440       854
  85.7660       824
  85.7880       911
  85.8100       884
  85.8320       976
  85.8540       953
  85.8760       952
  85.8980       966
  85.9200      1002
  85.9420      1062
  85.9640      1052
  85.9860      1066
  86.0080      1006
  86.0300      1116
  86.0520      1074
  86.0740      1098
  86.0960      1100
  86.1180      1106
  86.1400      1136
  86.1620      1070
  86.1840      1089
  86.2060      1097
  86.2280      1030
  86.2500      1022
  86.2720      1025
  86.2940       986
  86.3160       967
  86.3380       931
  86.3600       866
  86.3820       842
  86.4040       890
  86.4260       841
  86.4480       790
  86.4700       789
  86.4920       828
  86.5140       767
  86.5360       726
  86.5580       687
  86.5800       705
  86.6020       704
  86.6240       640
  86.6460       622
  86.6680       588
  86.6900       615
  86.7120       576
  86.7340       558
  86.7560       569
  86.7780       554
  86.8000       517
  86.8220       525
  86.8440       547
  86.8660       517
  86.8880       495
  86.9100       492
  86.9320       479
  86.9540       493
  86.9760       478
  86.9980       526
  87.0200       478
  87.0420       443
  87.0640       455
  87.0860       438
  87.1080       470
  87.1300       462
  87.1520       463
  87.1740       466
  87.1960       455
  87.2180       470
  87.2400       476
  87.2620       414
  87.2840       416
  87.3060       440
  87.3280       451
  87.3500       461
  87.3720       418
  87.3940       456
  87.4160       486
  87.4380       436
  87.4600       422
  87.4820       375
  87.5040       421
  87.5260       407
  87.5480       426
  87.5700       423
  87.5920       461
  87.6140       424
  87.6360       424
  87.6580       431
  87.6800       456
  87.7020       453
  87.7240       459
  87.7460       437
  87.7680       441
  87.7900       412
  87.8120       415
  87.8340       424
  87.8560       428
  87.8780       446
  87.9000       408
  87.9220       422
  87.9440       424
  87.9660       421
  87.9880       441
  88.0100       419
  88.0320       414
  88.0540       433
  88.0760       473
  88.0980       406
  88.1200       414
  88.1420       425
  88.1640       431
  88.1860       395
  88.2080       396
  88.2300       450
  88.2520       438
  88.2740       445
  88.2960       392
  88.3180       408
  88.3400       449
  88.3620       393
  88.3840       452
  88.4060       416
  88.4280       411
  88.4500       411
  88.4720       438
  88.4940       400
  88.5160       413
  88.5380       386
  88.5600       451
  88.5820       406
  88.6040       414
  88.6260       407
  88.6480       437
  88.6700       386
  88.6920       422
  88.7140       416
  88.7360       396
  88.7580       462
  88.7800       435
  88.8020       375
  88.8240       412
  88.8460       435
  88.8680       428
  88.8900       425
  88.9120       376
  88.9340       427
  88.9560       403
  88.9780       452
  89.0000       383
  89.0220       442
  89.0440       439
  89.0660       396
  89.0880       437
  89.1100       380
  89.1320       399
  89.1540       458
  89.1760       451
  89.1980       406
  89.2200       409
  89.2420       436
  89.2640       415
  89.2860       399
  89.3080       433
  89.3300       348
  89.3520       377
  89.3740       394
  89.3960       440
  89.4180       452
  89.4400       446
  89.4620       405
  89.4840       437
  89.5060       414
  89.5280       436
  89.5500       415
  89.5720       405
  89.5940       431
  89.6160       405
  89.6380       404
  89.6600       440
  89.6820       444
  89.7040       407
  89.7260       465
  89.7480       443
  89.7700       426
  89.7920       405
  89.8140       428
  89.8360       403
  89.8580       431
  89.8800       388
  89.9020       399
  89.9240       420
  89.9460       479
  89.9680       427
  89.9900       412
  90.0120       460
  90.0340       414
  90.0560       409
  90.0780       448
  90.1000       426
  90.1220       417
  90.1440       412
  90.1660       438
  90.1880       454
  90.2100       438
  90.2320       441
  90.2540       419
  90.2760       429
  90.2980       458
  90.3200       428
  90.3420       437
  90.3640       465
  90.3860       460
  90.4080       436
  90.4300       457
  90.4520       492
  90.4740       459
  90.4960       482
  90.5180       460
  90.5400       464
  90.5620       516
  90.5840       473
  90.6060       500
  90.6280       521
  90.6500       533
  90.6720       501
  90.6940       563
  90.7160       513
  90.7380       553
  90.7600       576
  90.7820       566
  90.8040       560
  90.8260       557
  90.8480       607
  90.8700       582
  90.8920       623
  90.9140       606
  90.9360       571
  90.9580       627
  90.9800       600
  91.0020       601
  91.0240       566
  91.0460       572
  91.0680       604
  91.0900       577
  91.1120       527
  91.1340       602
  91.1560       562
  91.1780       556
  91.2000       555
  91.2220       558
  91.2440       608
  91.2660       518
  91.2880       542
  91.3100       528
  91.3320       490
  91.3540       474
  91.3760       506
  91.3980       497
  91.4200       527
  91.4420       478
  91.4640       432
  91.4860       433
  91.5080       470
  91.5300       444
  91.5520       451
  91.5740       426
  91.5960       483
  91.6180       414
  91.6400       421
  91.6620       443
  91.6840       432
  91.7060       411
  91.7280       437
  91.7500       425
  91.7720       414
  91.7940       441
  91.8160       458
  91.8380       426
  91.8600       429
  91.8820       421
  91.9040       434
  91.9260       446
  91.9480       436
  91.9700       402
  91.9920       370
  92.0140       401
  92.0360       394
  92.0580       396
  92.0800       439
  92.1020       391
  92.1240       385
  92.1460       427
  92.1680       404
  92.1900       420
  92.2120       408
  92.2340       415
  92.2560       406
  92.2780       425
  92.3000       415
  92.3220       437
  92.3440       415
  92.3660       393
  92.3880       400
  92.4100       385
  92.4320       428
  92.4540       418
  92.4760       411
  92.4980       455
  92.5200       393
  92.5420       403
  92.5640       416
  92.5860       424
  92.6080       378
  92.6300       415
  92.6520       415
  92.6740       394
  92.6960       420
  92.7180       413
  92.7400       419
  92.7620       427
  92.7840       382
  92.8060       422
  92.8280       407
  92.8500       420
  92.8720       402
  92.8940       383
  92.9160       394
  92.9380       415
  92.9600       394
  92.9820       379
  93.0040       423
  93.0260       427
  93.0480       395
  93.0700       436
  93.0920       401
  93.1140       414
  93.1360       421
  93.1580       409
  93.1800       446
  93.2020       420
  93.2240       427
  93.2460       403
  93.2680       442
  93.2900       403
  93.3120       393
  93.3340       374
  93.3560       428
  93.3780       411
  93.4000       419
  93.4220       408
  93.4440       400
  93.4660       386
  93.4880       397
  93.5100       405
  93.5320       421
  93.5540       419
  93.5760       369
  93.5980       377
  93.6200       398
  93.6420       390
  93.6640       406
  93.6860       413
  93.7080       395
  93.7300       399
  93.7520       403
  93.7740       441
  93.7960       414
  93.8180       419
  93.8400       393
  93.8620       392
  93.8840       421
  93.9060       410
  93.9280       398
  93.9500       388
  93.9720       366
  93.9940       376
  94.0160       395
  94.0380       376
  94.0600       400
  94.0820       380
  94.1040       433
  94.1260       416
  94.1480       432
  94.1700       403
  94.1920       422
  94.2140       423
  94.2360       426
  94.2580       383
  94.2800       409
  94.3020       400
  94.3240       406
  94.3460       448
  94.3680       403
  94.3900       431
  94.4120       393
  94.4340       428
  94.4560       413
  94.4780       398
  94.5000       418
  94.5220       397
  94.5440       424
  94.5660       464
  94.5880       374
  94.6100       417
  94.6320       442
  94.6540       421
  94.6760       435
  94.6980       405
  94.7200       421
  94.7420       415
  94.7640       396
  94.7860       440
  94.8080       434
  94.8300       397
  94.8520       409
  94.8740       414
  94.8960       403
  94.9180       437
  94.9400       431
  94.9620       366
  94.9840       402
  95.0060       412
  95.0280       411
  95.0500       425
  95.0720       370
  95.0940       400
  95.1160       392
  95.1380       388
  95.1600       427
  95.1820       375
  95.2040       390
  95.2260       421
  95.2480       408
  95.2700       411
  95.2920       453
  95.3140       422
  95.3360       398
  95.3580       423
  95.3800       440
  95.4020       438
  95.4240       433
  95.4460       456
  95.4680       419
  95.4900       399
  95.5120       404
  95.5340       431
  95.5560       432
  95.5780       447
  95.6000       468
  95.6220       466
  95.6440       449
  95.6660       439
  95.6880       444
  95.7100       464
  95.7320       478
  95.7540       460
  95.7760       446
  95.7980       471
  95.8200       450
  95.8420       427
  95.8640       468
  95.8860       477
  95.9080       452
  95.9300       483
  95.9520       475
  95.9740       402
  95.9960       451
  96.0180       435
  96.0400       444
  96.0620       433
  96.0840       442
  96.1060       417
  96.1280       451
  96.1500       458
  96.1720       427
  96.1940       476
  96.2160       449
  96.2380       449
  96.2600       433
  96.2820       406
  96.3040       442
  96.3260       439
  96.3480       452
  96.3700       431
  96.3920       417
  96.4140       429
  96.4360       404
  96.4580       439
  96.4800       396
  96.5020       406
  96.5240       440
  96.5460       415
  96.5680       426
  96.5900       415
  96.6120       443
  96.6340       404
  96.6560       417
  96.6780       436
  96.7000       420
  96.7220       404
  96.7440       408
  96.7660       458
  96.7880       423
  96.8100       369
  96.8320       433
  96.8540       428
  96.8760       386
  96.8980       413
  96.9200       398
  96.9420       416
  96.9640       402
  96.9860       408
  97.0080       406
  97.0300       410
  97.0520       410
  97.0740       406
  97.0960       396
  97.1180       404
  97.1400       395
  97.1620       419
  97.1840       408
  97.2060       422
  97.2280       405
  97.2500       400
  97.2720       403
  97.2940       433
  97.3160       352
  97.3380       414
  97.3600       429
  97.3820       399
  97.4040       422
  97.4260       468
  97.4480       418
  97.4700       440
  97.4920       423
  97.5140       404
  97.5360       393
  97.5580       417
  97.5800       432
  97.6020       414
  97.6240       408
  97.6460       412
  97.6680       413
  97.6900       382
  97.7120       407
  97.7340       433
  97.7560       400
  97.7780       395
  97.8000       414
  97.8220       420
  97.8440       380
  97.8660       405
  97.8880       391
  97.9100       362
  97.9320       426
  97.9540       404
  97.9760       415
  97.9980       422
  98.0200       399
  98.0420       412
  98.0640       423
  98.0860       395
  98.1080       430
  98.1300       421
  98.1520       408
  98.1740       396
  98.1960       408
  98.2180       402
  98.2400       414
  98.2620       429
  98.2840       410
  98.3060       400
  98.3280       392
  98.3500       433
  98.3720       440
  98.3940       439
  98.4160       391
  98.4380       412
  98.4600       398
  98.4820       451
  98.5040       433
  98.5260       451
  98.5480       409
  98.5700       420
  98.5920       418
  98.6140       426
  98.6360       464
  98.6580       423
  98.6800       430
  98.7020       428
  98.7240       415
  98.7460       422
  98.7680       419
  98.7900       401
  98.8120       426
  98.8340       432
  98.8560       405
  98.8780       426
  98.9000       432
  98.9220       434
  98.9440       428
  98.9660       439
  98.9880       420
  99.0100       410
  99.0320       418
  99.0540       412
  99.0760       412
  99.0980       420
  99.1200       395
  99.1420       422
  99.1640       437
  99.1860       408
  99.2080       409
  99.2300       407
  99.2520       422
  99.2740       424
  99.2960       398
  99.3180       447
  99.3400       426
  99.3620       387
  99.3840       447
  99.4060       398
  99.4280       413
  99.4500       421
  99.4720       446
  99.4940       431
  99.5160       393
  99.5380       422
  99.5600       409
  99.5820       436
  99.6040       425
  99.6260       402
  99.6480       412
  99.6700       429
  99.6920       388
  99.7140       415
  99.7360       412
  99.7580       430
  99.7800       445
  99.8020       400
  99.8240       407
  99.8460       434
  99.8680       431
  99.8900       424
  99.9120       422
  99.9340       428
  99.9560       439
  99.9780       375
 100.0000       376
 100.0220       468
 100.0440       471
 100.0660       468
 100.0880       442
 100.1100       438
 100.1320       423
 100.1540       479
 100.1760       411
 100.1980       446
 100.2200       438
 100.2420       454
 100.2640       441
 100.2860       471
 100.3080       444
 100.3300       440
 100.3520       448
 100.3740       471
 100.3960       478
 100.4180       437
 100.4400       492
 100.4620       459
 100.4840       460
 100.5060       474
 100.5280       457
 100.5500       488
 100.5720       488
 100.5940       496
 100.6160       498
 100.6380       521
 100.6600       500
 100.6820       451
 100.7040       477
 100.7260       492
 100.7480       481
 100.7700       506
 100.7920       470
 100.8140       456
 100.8360       514
 100.8580       497
 100.8800       486
 100.9020       478
 100.9240       466
 100.9460       466
 100.9680       484
 100.9900       468
 101.0120       462
 101.0340       499
 101.0560       483
 101.0780       488
 101.1000       447
 101.1220       439
 101.1440       463
 101.1660       452
 101.1880       465
 101.2100       438
 101.2320       421
 101.2540       432
 101.2760       451
 101.2980       454
 101.3200       456
 101.3420       442
 101.3640       423
 101.3860       440
 101.4080       403
 101.4300       440
 101.4520       446
 101.4740       438
 101.4960       447
 101.5180       412
 101.5400       437
 101.5620       434
 101.5840       430
 101.6060       427
 101.6280       445
 101.6500       445
 101.6720       418
 101.6940       431
 101.7160       424
 101.7380       433
 101.7600       440
 101.7820       427
 101.8040       430
 101.8260       412
 101.8480       387
 101.8700       462
 101.8920       464
 101.9140       427
 101.9360       410
 101.9580       392
 101.9800       399
 102.0020       417
 102.0240       443
 102.0460       440
 102.0680       403
 102.0900       424
 102.1120       428
 102.1340       370
 102.1560       418
 102.1780       473
 102.2000       423
 102.2220       433
 102.2440       380
 102.2660       419
 102.2880       427
 102.3100       407
 102.3320       441
 102.3540       454
 102.3760       414
 102.3980       418
 102.4200       427
 102.4420       400
 102.4640       413
 102.4860       447
 102.5080       425
 102.5300       418
 102.5520       406
 102.5740       412
 102.5960       404
 102.6180       470
 102.6400       442
 102.6620       426
 102.6840       404
 102.7060       439
 102.7280       383
 102.7500       413
 102.7720       438
 102.7940       435
 102.8160       395
 102.8380       435
 102.8600       435
 102.8820       410
 102.9040       408
 102.9260       412
 102.9480       394
 102.9700       402
 102.9920       448
 103.0140       388
 103.0360       405
 103.0580       401
 103.0800       421
 103.1020       433
 103.1240       413
 103.1460       412
 103.1680       434
 103.1900       374
 103.2120       446
 103.2340       388
 103.2560       380
 103.2780       415
 103.3000       367
 103.3220       431
 103.3440       389
 103.3660       380
 103.3880       453
 103.4100       413
 103.4320       395
 103.4540       403
 103.4760       405
 103.4980       400
 103.5200       451
 103.5420       403
 103.5640       434
 103.5860       424
 103.6080       440
 103.6300       403
 103.6520       391
 103.6740       405
 103.6960       415
 103.7180       431
 103.7400       412
 103.7620       451
 103.7840       406
 103.8060       387
 103.8280       419
 103.8500       400
 103.8720       428
 103.8940       428
 103.9160       394
 103.9380       396
 103.9600       411
 103.9820       417
 104.0040       369
 104.0260       417
 104.0480       386
 104.0700       454
 104.0920       408
 104.1140       423
 104.1360       384
 104.1580       436
 104.1800       420
 104.2020       417
 104.2240       440
 104.2460       400
 104.2680       431
 104.2900       420
 104.3120       439
 104.3340       397
 104.3560       393
 104.3780       416
 104.4000       402
 104.4220       396
 104.4440       437
 104.4660       382
 104.4880       425
 104.5100       408
 104.5320       409
 104.5540       361
 104.5760       409
 104.5980       440
 104.6200       414
 104.6420       431
 104.6640       398
 104.6860       430
 104.7080       450
 104.7300       440
 104.7520       438
 104.7740       424
 104.7960       435
 104.8180       371
 104.8400       404
 104.8620       427
 104.8840       407
 104.9060       404
 104.9280       429
 104.9500       420
 104.9720       424
 104.9940       417
 105.0160       401
 105.0380       439
 105.0600       395
 105.0820       449
 105.1040       426
 105.1260       364
 105.1480       395
 105.1700       409
 105.1920       408
 105.2140       427
 105.2360       396
 105.2580       371
 105.2800       422
 105.3020       422
 105.3240       401
 105.3460       385
 105.3680       459
 105.3900       432
 105.4120       402
 105.4340       447
 105.4560       385
 105.4780       416
 105.5000       372
 105.5220       416
 105.5440       436
 105.5660       407
 105.5880       407
 105.6100       426
 105.6320       411
 105.6540       423
 105.6760       385
 105.6980       378
 105.7200       428
 105.7420       417
 105.7640       406
 105.7860       395
 105.8080       418
 105.8300       398
 105.8520       452
 105.8740       388
 105.8960       400
 105.9180       404
 105.9400       433
 105.9620       412
 105.9840       380
 106.0060       381
 106.0280       442
 106.0500       407
 106.0720       401
 106.0940       392
 106.1160       403
 106.1380       388
 106.1600       417
 106.1820       402
 106.2040       423
 106.2260       400
 106.2480       414
 106.2700       388
 106.2920       480
 106.3140       379
 106.3360       426
 106.3580       423
 106.3800       425
 106.4020       409
 106.4240       397
 106.4460       440
 106.4680       411
 106.4900       415
 106.5120       389
 106.5340       405
 106.5560       420
 106.5780       444
 106.6000       415
 106.6220       424
 106.6440       401
 106.6660       414
 106.6880       425
 106.7100       390
 106.7320       435
 106.7540       433
 106.7760       434
 106.7980       411
 106.8200       437
 106.8420       410
 106.8640       424
 106.8860       399
 106.9080       433
 106.9300       433
 106.9520       390
 106.9740       404
 106.9960       433
 107.0180       406
 107.0400       411
 107.0620       435
 107.0840       427
 107.1060       443
 107.1280       424
 107.1500       418
 107.1720       403
 107.1940       400
 107.2160       410
 107.2380       409
 107.2600       437
 107.2820       441
 107.3040       401
 107.3260       418
 107.3480       408
 107.3700       374
 107.3920       435
 107.4140       430
 107.4360       404
 107.4580       414
 107.4800       417
 107.5020       423
 107.5240       414
 107.5460       416
 107.5680       409
 107.5900       390
 107.6120       420
 107.6340       414
 107.6560       401
 107.6780       397
 107.7000       428
 107.7220       444
 107.7440       425
 107.7660       446
 107.7880       421
 107.8100       421
 107.8320       387
 107.8540       393
 107.8760       414
 107.8980       400
 107.9200       379
 107.9420       446
 107.9640       432
 107.9860       395
 108.0080       400
 108.0300       412
 108.0520       406
 108.0740       382
 108.0960       447
 108.1180       375
 108.1400       437
 108.1620       444
 108.1840       414
 108.2060       402
 108.2280       413
 108.2500       415
 108.2720       411
 108.2940       407
 108.3160       408
 108.3380       411
 108.3600       433
 108.3820       453
 108.4040       428
 108.4260       416
 108.4480       432
 108.4700       439
 108.4920       414
 108.5140       384
 108.5360       452
 108.5580       414
 108.5800       434
 108.6020       422
 108.6240       432
 108.6460       412
 108.6680       432
 108.6900       407
 108.7120       438
 108.7340       374
 108.7560       453
 108.7780       424
 108.8000       424
 108.8220       407
 108.8440       417
 108.8660       437
 108.8880       450
 108.9100       413
 108.9320       447
 108.9540       463
 108.9760       435
 108.9980       428
 109.0200       422
 109.0420       402
 109.0640       450
 109.0860       409
 109.1080       436
 109.1300       397
 109.1520       400
 109.1740       442
 109.1960       432
 109.2180       411
 109.2400       435
 109.2620       417
 109.2840       382
 109.3060       450
 109.3280       426
 109.3500       422
 109.3720       442
 109.3940       451
 109.4160       437
 109.4380       429
 109.4600       440
 109.4820       424
 109.5040       440
 109.5260       431
 109.5480       423
 109.5700       422
 109.5920       400
 109.6140       418
 109.6360       421
 109.6580       447
 109.6800       450
 109.7020       446
 109.7240       418
 109.7460       435
 109.7680       478
 109.7900       461
 109.8120       468
 109.8340       439
 109.8560       479
 109.8780       450
 109.9000       469
 109.9220       473
 109.9440       488
 109.9660       432
 109.9880       439
 110.0100       450
 110.0320       459
 110.0540       456
 110.0760       503
 110.0980       466
 110.1200       412
 110.1420       452
 110.1640       460
 110.1860       444
 110.2080       478
 110.2300       476
 110.2520       477
 110.2740       499
 110.2960       468
 110.3180       509
 110.3400       450
 110.3620       529
 110.3840       497
 110.4060       471
 110.4280       490
 110.4500       491
 110.4720       490
 110.4940       530
 110.5160       538
 110.5380       554
 110.5600       500
 110.5820       532
 110.6040       491
 110.6260       530
 110.6480       478
 110.6700       510
 110.6920       499
 110.7140       496
 110.7360       495
 110.7580       527
 110.7800       493
 110.8020       557
 110.8240       500
 110.8460       504
 110.8680       552
 110.8900       515
 110.9120       496
 110.9340       503
 110.9560       505
 110.9780       501
 111.0000       493
 111.0220       452
 111.0440       492
 111.0660       478
 111.0880       502
 111.1100       536
 111.1320       464
 111.1540       497
 111.1760       503
 111.1980       490
 111.2200       473
 111.2420       469
 111.2640       450
 111.2860       502
 111.3080       459
 111.3300       461
 111.3520       433
 111.3740       492
 111.3960       436
 111.4180       501
 111.4400       469
 111.4620       425
 111.4840       464
 111.5060       471
 111.5280       474
 111.5500       436
 111.5720       471
 111.5940       461
 111.6160       464
 111.6380       457
 111.6600       477
 111.6820       455
 111.7040       448
 111.7260       460
 111.7480       447
 111.7700       449
 111.7920       437
 111.8140       483
 111.8360       412
 111.8580       425
 111.8800       439
 111.9020       417
 111.9240       438
 111.9460       477
 111.9680       454
 111.9900       467
 112.0120       445
 112.0340       460
 112.0560       423
 112.0780       433
 112.1000       399
 112.1220       424
 112.1440       463
 112.1660       410
 112.1880       451
 112.2100       419
 112.2320       445
 112.2540       449
 112.2760       404
 112.2980       411
 112.3200       465
 112.3420       448
 112.3640       450
 112.3860       433
 112.4080       454
 112.4300       448
 112.4520       454
 112.4740       435
 112.4960       406
 112.5180       430
 112.5400       439
 112.5620       418
 112.5840       416
 112.6060       436
 112.6280       451
 112.6500       422
 112.6720       411
 112.6940       410
 112.7160       407
 112.7380       430
 112.7600       432
 112.7820       446
 112.8040       405
 112.8260       439
 112.8480       441
 112.8700       434
 112.8920       406
 112.9140       404
 112.9360       410
 112.9580       396
 112.9800       417
 113.0020       422
 113.0240       378
 113.0460       425
 113.0680       451
 113.0900       429
 113.1120       429
 113.1340       455
 113.1560       423
 113.1780       434
 113.2000       409
 113.2220       418
 113.2440       424
 113.2660       429
 113.2880       413
 113.3100       400
 113.3320       422
 113.3540       372
 113.3760       403
 113.3980       431
 113.4200       462
 113.4420       411
 113.4640       428
 113.4860       425
 113.5080       393
 113.5300       430
 113.5520       422
 113.5740       417
 113.5960       422
 113.6180       470
 113.6400       443
 113.6620       424
 113.6840       449
 113.7060       408
 113.7280       402
 113.7500       408
 113.7720       446
 113.7940       439
 113.8160       448
 113.8380       390
 113.8600       478
 113.8820       413
 113.9040       413
 113.9260       392
 113.9480       433
 113.9700       435
 113.9920       425
 114.0140       384
 114.0360       436
 114.0580       444
 114.0800       439
 114.1020       417
 114.1240       433
 114.1460       411
 114.1680       444
 114.1900       437
 114.2120       455
 114.2340       469
 114.2560       459
 114.2780       393
 114.3000       432
 114.3220       422
 114.3440       418
 114.3660       441
 114.3880       471
 114.4100       419
 114.4320       422
 114.4540       399
 114.4760       467
 114.4980       468
 114.5200       412
 114.5420       457
 114.5640       477
 114.5860       425
 114.6080       436
 114.6300       425
 114.6520       431
 114.6740       449
 114.6960       422
 114.7180       449
 114.7400       421
 114.7620       435
 114.7840       408
 114.8060       460
 114.8280       399
 114.8500       431
 114.8720       393
 114.8940       427
 114.9160       467
 114.9380       400
 114.9600       423
 114.9820       445
 115.0040       429
 115.0260       484
 115.0480       453
 115.0700       438
 115.0920       466
 115.1140       411
 115.1360       474
 115.1580       446
 115.1800       460
 115.2020       445
 115.2240       480
 115.2460       403
 115.2680       439
 115.2900       450
 115.3120       448
 115.3340       472
 115.3560       463
 115.3780       448
 115.4000       434
 115.4220       434
 115.4440       454
 115.4660       443
 115.4880       465
 115.5100       405
 115.5320       480
 115.5540       450
 115.5760       454
 115.5980       433
 115.6200       428
 115.6420       463
 115.6640       431
 115.6860       485
 115.7080       437
 115.7300       415
 115.7520       469
 115.7740       433
 115.7960       478
 115.8180       452
 115.8400       465
 115.8620       471
 115.8840       511
 115.9060       430
 115.9280       488
 115.9500       412
 115.9720       455
 115.9940       449
 116.0160       459
 116.0380       464
 116.0600       449
 116.0820       454
 116.1040       492
 116.1260       483
 116.1480       493
 116.1700       441
 116.1920       456
 116.2140       465
 116.2360       470
 116.2580       452
 116.2800       473
 116.3020       456
 116.3240       448
 116.3460       460
 116.3680       492
 116.3900       489
 116.4120       459
 116.4340       504
 116.4560       494
 116.4780       497
 116.5000       473
 116.5220       436
 116.5440       452
 116.5660       509
 116.5880       451
 116.6100       453
 116.6320       480
 116.6540       457
 116.6760       484
 116.6980       461
 116.7200       426
 116.7420       417
 116.7640       453
 116.7860       465
 116.8080       472
 116.8300       474
 116.8520       409
 116.8740       434
 116.8960       485
 116.9180       444
 116.9400       432
 116.9620       464
 116.9840       418
 117.0060       407
 117.0280       450
 117.0500       466
 117.0720       395
 117.0940       431
 117.1160       433
 117.1380       435
 117.1600       431
 117.1820       468
 117.2040       487
 117.2260       454
 117.2480       468
 117.2700       435
 117.2920       442
 117.3140       456
 117.3360       443
 117.3580       466
 117.3800       461
 117.4020       461
 117.4240       448
 117.4460       426
 117.4680       451
 117.4900       486
 117.5120       434
 117.5340       429
 117.5560       401
 117.5780       449
 117.6000       433
 117.6220       412
 117.6440       458
 117.6660       431
 117.6880       446
 117.7100       437
 117.7320       472
 117.7540       461
 117.7760       498
 117.7980       431
 117.8200       471
 117.8420       426
 117.8640       464
 117.8860       395
 117.9080       418
 117.9300       436
 117.9520       396
 117.9740       463
 117.9960       433
 118.0180       392
 118.0400       434
 118.0620       474
 118.0840       472
 118.1060       430
 118.1280       466
 118.1500       389
 118.1720       419
 118.1940       463
 118.2160       426
 118.2380       424
 118.2600       442
 118.2820       403
 118.3040       435
 118.3260       415
 118.3480       430
 118.3700       441
 118.3920       446
 118.4140       440
 118.4360       438
 118.4580       442
 118.4800       410
 118.5020       422
 118.5240       451
 118.5460       428
 118.5680       459
 118.5900       467
 118.6120       447
 118.6340       428
 118.6560       452
 118.6780       458
 118.7000       392
 118.7220       414
 118.7440       436
 118.7660       413
 118.7880       433
 118.8100       441
 118.8320       462
 118.8540       419
 118.8760       415
 118.8980       438
 118.9200       449
 118.9420       422
 118.9640       429
 118.9860       421
 119.0080       396
 119.0300       437
 119.0520       393
 119.0740       463
 119.0960       436
 119.1180       407
 119.1400       424
 119.1620       421
 119.1840       430
 119.2060       408
 119.2280       427
 119.2500       467
 119.2720       439
 119.2940       476
 119.3160       409
 119.3380       423
 119.3600       411
 119.3820       449
 119.4040       448
 119.4260       435
 119.4480       426
 119.4700       449
 119.4920       438
 119.5140       395
 119.5360       439
 119.5580       407
 119.5800       415
 119.6020       428
 119.6240       430
 119.6460       379
 119.6680       399
 119.6900       453
 119.7120       433
 119.7340       408
 119.7560       482
 119.7780       446
 119.8000       424
 119.8220       413
 119.8440       422
 119.8660       454
 119.8880       440
 119.9100       473
 119.9320       418
 119.9540       462
 119.9760       446
 119.9980       441
 120.0200       456
 120.0420       470
 120.0640       435
 120.0860       425
 120.1080       402
 120.1300       471
 120.1520       408
 120.1740       455
 120.1960       466
 120.2180       444
 120.2400       441
 120.2620       431
 120.2840       419
 120.3060       440
 120.3280       461
 120.3500       421
 120.3720       453
 120.3940       445
 120.4160       409
 120.4380       438
 120.4600       393
 120.4820       442
 120.5040       434
 120.5260       450
 120.5480       416
 120.5700       463
 120.5920       417
 120.6140       440
 120.6360       456
 120.6580       440
 120.6800       447
 120.7020       415
 120.7240       419
 120.7460       466
 120.7680       440
 120.7900       463
 120.8120       450
 120.8340       465
 120.8560       480
 120.8780       460
 120.9000       474
 120.9220       463
 120.9440       473
 120.9660       458
 120.9880       482
 121.0100       448
 121.0320       438
 121.0540       474
 121.0760       451
 121.0980       478
 121.1200       453
 121.1420       481
 121.1640       441
 121.1860       462
 121.2080       441
 121.2300       486
 121.2520       469
 121.2740       451
 121.2960       495
 121.3180       506
 121.3400       453
 121.3620       458
 121.3840       404
 121.4060       480
 121.4280       479
 121.4500       456
 121.4720       487
 121.4940       448
 121.5160       463
 121.5380       470
 121.5600       471
 121.5820       479
 121.6040       502
 121.6260       461
 121.6480       450
 121.6700       442
 121.6920       458
 121.7140       474
 121.7360       500
 121.7580       477
 121.7800       428
 121.8020       457
 121.8240       472
 121.8460       442
 121.8680       479
 121.8900       471
 121.9120       511
 121.9340       465
 121.9560       444
 121.9780       444
 122.0000       485
