; C:\Data\Froehlich\Praktikum\faber\probe3.raw(Diffrac Plus V1.01 file) converted by XCH V1.0
_FILEVERSION=2
_SAMPLE='probe3'
_SITE='II. Physikalisches Institut'
_ATTACHMENTS_CODE=0
_GONIOMETER_RADIUS=200.500000
_FIXED_DIVSLIT=2.000000
_FIXED_SAMPLESLIT=1.000000
_FIXED_DETSLIT=0.200000
_MONOCHROMATOR=0
; None
_THIN_FILM='N'
_BETA_FILTER='Y'
_FIXED_ANTISLIT=2.000000
_ANALYZER_CODE=0
; None
_DATEMEASURED='12-Nov-2015 14:08:13'
_WL_UNIT='A'
_WL1=1.540590
_WL2=1.544430
_WL3=1.392230
_WLRATIO=0.520000
_ANODE='Cu'
; (Data for Range number 1)
_DRIVE='COUPLED'
_STEPTIME=2.000000
_STEPSIZE=0.022000
_STEPMODE='C'
_START=12.000000
_THETA=6.000000
_2THETA=12.000000
_KHI=0.000000
_PHI=0.000000
_X=0.000000
_Y=0.000000
_Z=0.000000
_DIVERGENCE=0.000000
_ANTISCATTER=0.000000
_DETECTOR=1
; S.C.
_HV=1000.000000
_GAIN=80.000000
_LLD=0.550000
_ULD=1.310000
_DETECTORSLIT='unkn'
_AUX1=0.000000
_AUX2=0.000000
_AUX3=0.000000
_TIMESTARTED=12.000000
_ROTATION_SPEED=120.000000
_TEMP_RATE=-1.000000
_TEMP_DELAY=-1.000000
_KV=40
_MA=40
_RANGE_WL=1.540590
_3DPLANE=0
_2THETACOUNTS
  12.0000       297
  12.0220       298
  12.0440       249
  12.0660       278
  12.0880       255
  12.1100       304
  12.1320       301
  12.1540       278
  12.1760       301
  12.1980       275
  12.2200       271
  12.2420       279
  12.2640       279
  12.2860       269
  12.3080       268
  12.3300       298
  12.3520       258
  12.3740       275
  12.3960       286
  12.4180       283
  12.4400       265
  12.4620       285
  12.4840       286
  12.5060       255
  12.5280       246
  12.5500       265
  12.5720       295
  12.5940       257
  12.6160       252
  12.6380       263
  12.6600       266
  12.6820       288
  12.7040       261
  12.7260       243
  12.7480       281
  12.7700       263
  12.7920       264
  12.8140       273
  12.8360       252
  12.8580       282
  12.8800       281
  12.9020       277
  12.9240       254
  12.9460       292
  12.9680       283
  12.9900       249
  13.0120       282
  13.0340       262
  13.0560       258
  13.0780       314
  13.1000       258
  13.1220       279
  13.1440       274
  13.1660       269
  13.1880       263
  13.2100       254
  13.2320       240
  13.2540       251
  13.2760       268
  13.2980       262
  13.3200       244
  13.3420       287
  13.3640       263
  13.3860       277
  13.4080       270
  13.4300       267
  13.4520       292
  13.4740       243
  13.4960       256
  13.5180       263
  13.5400       245
  13.5620       265
  13.5840       270
  13.6060       270
  13.6280       280
  13.6500       266
  13.6720       260
  13.6940       299
  13.7160       260
  13.7380       277
  13.7600       265
  13.7820       275
  13.8040       249
  13.8260       263
  13.8480       248
  13.8700       230
  13.8920       248
  13.9140       270
  13.9360       281
  13.9580       272
  13.9800       260
  14.0020       251
  14.0240       277
  14.0460       255
  14.0680       272
  14.0900       257
  14.1120       239
  14.1340       282
  14.1560       250
  14.1780       314
  14.2000       268
  14.2220       275
  14.2440       268
  14.2660       252
  14.2880       268
  14.3100       283
  14.3320       260
  14.3540       296
  14.3760       282
  14.3980       253
  14.4200       263
  14.4420       248
  14.4640       279
  14.4860       289
  14.5080       292
  14.5300       257
  14.5520       236
  14.5740       283
  14.5960       269
  14.6180       273
  14.6400       279
  14.6620       293
  14.6840       250
  14.7060       267
  14.7280       331
  14.7500       264
  14.7720       272
  14.7940       263
  14.8160       260
  14.8380       251
  14.8600       271
  14.8820       271
  14.9040       287
  14.9260       297
  14.9480       270
  14.9700       279
  14.9920       270
  15.0140       245
  15.0360       280
  15.0580       239
  15.0800       259
  15.1020       255
  15.1240       258
  15.1460       300
  15.1680       297
  15.1900       292
  15.2120       233
  15.2340       281
  15.2560       255
  15.2780       310
  15.3000       300
  15.3220       312
  15.3440       280
  15.3660       295
  15.3880       272
  15.4100       283
  15.4320       281
  15.4540       292
  15.4760       322
  15.4980       273
  15.5200       272
  15.5420       278
  15.5640       260
  15.5860       274
  15.6080       304
  15.6300       310
  15.6520       283
  15.6740       294
  15.6960       294
  15.7180       250
  15.7400       275
  15.7620       272
  15.7840       286
  15.8060       330
  15.8280       307
  15.8500       291
  15.8720       292
  15.8940       283
  15.9160       289
  15.9380       285
  15.9600       290
  15.9820       285
  16.0040       283
  16.0260       301
  16.0480       299
  16.0700       290
  16.0920       308
  16.1140       304
  16.1360       286
  16.1580       286
  16.1800       300
  16.2020       303
  16.2240       278
  16.2460       293
  16.2680       301
  16.2900       318
  16.3120       298
  16.3340       291
  16.3560       279
  16.3780       302
  16.4000       290
  16.4220       270
  16.4440       282
  16.4660       284
  16.4880       289
  16.5100       296
  16.5320       290
  16.5540       296
  16.5760       291
  16.5980       298
  16.6200       295
  16.6420       307
  16.6640       290
  16.6860       302
  16.7080       306
  16.7300       290
  16.7520       280
  16.7740       291
  16.7960       293
  16.8180       318
  16.8400       317
  16.8620       305
  16.8840       303
  16.9060       314
  16.9280       303
  16.9500       323
  16.9720       287
  16.9940       299
  17.0160       312
  17.0380       320
  17.0600       303
  17.0820       311
  17.1040       308
  17.1260       327
  17.1480       291
  17.1700       321
  17.1920       284
  17.2140       286
  17.2360       320
  17.2580       319
  17.2800       305
  17.3020       321
  17.3240       309
  17.3460       305
  17.3680       325
  17.3900       317
  17.4120       336
  17.4340       321
  17.4560       316
  17.4780       307
  17.5000       318
  17.5220       324
  17.5440       338
  17.5660       317
  17.5880       334
  17.6100       316
  17.6320       311
  17.6540       319
  17.6760       336
  17.6980       334
  17.7200       331
  17.7420       349
  17.7640       348
  17.7860       320
  17.8080       302
  17.8300       307
  17.8520       315
  17.8740       335
  17.8960       332
  17.9180       335
  17.9400       346
  17.9620       318
  17.9840       331
  18.0060       334
  18.0280       340
  18.0500       330
  18.0720       312
  18.0940       330
  18.1160       334
  18.1380       343
  18.1600       328
  18.1820       331
  18.2040       322
  18.2260       324
  18.2480       351
  18.2700       372
  18.2920       374
  18.3140       330
  18.3360       326
  18.3580       378
  18.3800       349
  18.4020       368
  18.4240       327
  18.4460       354
  18.4680       326
  18.4900       334
  18.5120       369
  18.5340       386
  18.5560       353
  18.5780       361
  18.6000       337
  18.6220       369
  18.6440       344
  18.6660       305
  18.6880       350
  18.7100       323
  18.7320       355
  18.7540       324
  18.7760       356
  18.7980       347
  18.8200       376
  18.8420       404
  18.8640       388
  18.8860       343
  18.9080       332
  18.9300       340
  18.9520       364
  18.9740       353
  18.9960       367
  19.0180       329
  19.0400       341
  19.0620       348
  19.0840       350
  19.1060       347
  19.1280       390
  19.1500       345
  19.1720       326
  19.1940       340
  19.2160       356
  19.2380       378
  19.2600       382
  19.2820       363
  19.3040       363
  19.3260       381
  19.3480       341
  19.3700       351
  19.3920       371
  19.4140       400
  19.4360       371
  19.4580       344
  19.4800       375
  19.5020       391
  19.5240       349
  19.5460       373
  19.5680       326
  19.5900       379
  19.6120       367
  19.6340       374
  19.6560       423
  19.6780       380
  19.7000       350
  19.7220       388
  19.7440       372
  19.7660       378
  19.7880       357
  19.8100       367
  19.8320       408
  19.8540       355
  19.8760       408
  19.8980       402
  19.9200       367
  19.9420       391
  19.9640       390
  19.9860       369
  20.0080       366
  20.0300       388
  20.0520       365
  20.0740       391
  20.0960       348
  20.1180       367
  20.1400       424
  20.1620       367
  20.1840       382
  20.2060       385
  20.2280       407
  20.2500       409
  20.2720       424
  20.2940       379
  20.3160       385
  20.3380       396
  20.3600       377
  20.3820       356
  20.4040       350
  20.4260       352
  20.4480       400
  20.4700       394
  20.4920       404
  20.5140       395
  20.5360       403
  20.5580       433
  20.5800       411
  20.6020       380
  20.6240       366
  20.6460       373
  20.6680       400
  20.6900       412
  20.7120       401
  20.7340       385
  20.7560       397
  20.7780       426
  20.8000       386
  20.8220       424
  20.8440       404
  20.8660       411
  20.8880       418
  20.9100       347
  20.9320       390
  20.9540       410
  20.9760       397
  20.9980       392
  21.0200       406
  21.0420       412
  21.0640       411
  21.0860       421
  21.1080       423
  21.1300       411
  21.1520       398
  21.1740       406
  21.1960       401
  21.2180       442
  21.2400       408
  21.2620       417
  21.2840       394
  21.3060       416
  21.3280       452
  21.3500       425
  21.3720       388
  21.3940       430
  21.4160       393
  21.4380       406
  21.4600       417
  21.4820       402
  21.5040       445
  21.5260       400
  21.5480       418
  21.5700       402
  21.5920       428
  21.6140       436
  21.6360       435
  21.6580       445
  21.6800       402
  21.7020       409
  21.7240       445
  21.7460       429
  21.7680       391
  21.7900       405
  21.8120       448
  21.8340       455
  21.8560       461
  21.8780       459
  21.9000       429
  21.9220       383
  21.9440       429
  21.9660       408
  21.9880       424
  22.0100       394
  22.0320       409
  22.0540       408
  22.0760       406
  22.0980       420
  22.1200       397
  22.1420       456
  22.1640       429
  22.1860       424
  22.2080       399
  22.2300       413
  22.2520       438
  22.2740       461
  22.2960       438
  22.3180       464
  22.3400       400
  22.3620       456
  22.3840       419
  22.4060       427
  22.4280       425
  22.4500       462
  22.4720       416
  22.4940       412
  22.5160       426
  22.5380       409
  22.5600       430
  22.5820       442
  22.6040       444
  22.6260       433
  22.6480       435
  22.6700       433
  22.6920       402
  22.7140       471
  22.7360       466
  22.7580       392
  22.7800       416
  22.8020       468
  22.8240       420
  22.8460       495
  22.8680       437
  22.8900       458
  22.9120       455
  22.9340       487
  22.9560       462
  22.9780       466
  23.0000       449
  23.0220       408
  23.0440       409
  23.0660       416
  23.0880       465
  23.1100       464
  23.1320       478
  23.1540       442
  23.1760       460
  23.1980       452
  23.2200       435
  23.2420       443
  23.2640       450
  23.2860       480
  23.3080       453
  23.3300       482
  23.3520       424
  23.3740       462
  23.3960       451
  23.4180       417
  23.4400       472
  23.4620       434
  23.4840       454
  23.5060       459
  23.5280       484
  23.5500       458
  23.5720       456
  23.5940       448
  23.6160       446
  23.6380       477
  23.6600       472
  23.6820       471
  23.7040       485
  23.7260       474
  23.7480       428
  23.7700       460
  23.7920       444
  23.8140       440
  23.8360       481
  23.8580       424
  23.8800       438
  23.9020       454
  23.9240       424
  23.9460       447
  23.9680       443
  23.9900       459
  24.0120       463
  24.0340       409
  24.0560       432
  24.0780       464
  24.1000       433
  24.1220       460
  24.1440       429
  24.1660       459
  24.1880       460
  24.2100       422
  24.2320       452
  24.2540       404
  24.2760       483
  24.2980       433
  24.3200       446
  24.3420       456
  24.3640       462
  24.3860       470
  24.4080       444
  24.4300       477
  24.4520       451
  24.4740       398
  24.4960       447
  24.5180       481
  24.5400       492
  24.5620       457
  24.5840       427
  24.6060       471
  24.6280       481
  24.6500       489
  24.6720       432
  24.6940       421
  24.7160       439
  24.7380       487
  24.7600       472
  24.7820       493
  24.8040       450
  24.8260       490
  24.8480       453
  24.8700       533
  24.8920       473
  24.9140       478
  24.9360       472
  24.9580       456
  24.9800       471
  25.0020       441
  25.0240       474
  25.0460       470
  25.0680       444
  25.0900       465
  25.1120       477
  25.1340       469
  25.1560       441
  25.1780       465
  25.2000       448
  25.2220       477
  25.2440       491
  25.2660       450
  25.2880       446
  25.3100       462
  25.3320       445
  25.3540       471
  25.3760       464
  25.3980       427
  25.4200       478
  25.4420       457
  25.4640       471
  25.4860       433
  25.5080       531
  25.5300       443
  25.5520       438
  25.5740       444
  25.5960       442
  25.6180       461
  25.6400       472
  25.6620       426
  25.6840       479
  25.7060       451
  25.7280       436
  25.7500       427
  25.7720       442
  25.7940       476
  25.8160       444
  25.8380       455
  25.8600       453
  25.8820       457
  25.9040       508
  25.9260       489
  25.9480       508
  25.9700       430
  25.9920       466
  26.0140       446
  26.0360       483
  26.0580       414
  26.0800       443
  26.1020       450
  26.1240       468
  26.1460       473
  26.1680       465
  26.1900       435
  26.2120       414
  26.2340       455
  26.2560       416
  26.2780       437
  26.3000       482
  26.3220       447
  26.3440       453
  26.3660       462
  26.3880       454
  26.4100       441
  26.4320       491
  26.4540       467
  26.4760       470
  26.4980       476
  26.5200       464
  26.5420       473
  26.5640       460
  26.5860       434
  26.6080       442
  26.6300       422
  26.6520       479
  26.6740       448
  26.6960       439
  26.7180       468
  26.7400       434
  26.7620       467
  26.7840       462
  26.8060       446
  26.8280       496
  26.8500       431
  26.8720       494
  26.8940       452
  26.9160       428
  26.9380       437
  26.9600       485
  26.9820       468
  27.0040       410
  27.0260       448
  27.0480       434
  27.0700       438
  27.0920       423
  27.1140       493
  27.1360       455
  27.1580       463
  27.1800       458
  27.2020       466
  27.2240       450
  27.2460       440
  27.2680       442
  27.2900       406
  27.3120       454
  27.3340       450
  27.3560       447
  27.3780       437
  27.4000       481
  27.4220       451
  27.4440       462
  27.4660       444
  27.4880       452
  27.5100       454
  27.5320       456
  27.5540       475
  27.5760       442
  27.5980       434
  27.6200       472
  27.6420       437
  27.6640       447
  27.6860       425
  27.7080       461
  27.7300       468
  27.7520       435
  27.7740       408
  27.7960       445
  27.8180       452
  27.8400       437
  27.8620       418
  27.8840       439
  27.9060       430
  27.9280       425
  27.9500       470
  27.9720       443
  27.9940       436
  28.0160       456
  28.0380       448
  28.0600       428
  28.0820       481
  28.1040       428
  28.1260       467
  28.1480       468
  28.1700       454
  28.1920       452
  28.2140       435
  28.2360       470
  28.2580       451
  28.2800       433
  28.3020       452
  28.3240       476
  28.3460       420
  28.3680       443
  28.3900       425
  28.4120       450
  28.4340       438
  28.4560       479
  28.4780       499
  28.5000       446
  28.5220       428
  28.5440       475
  28.5660       438
  28.5880       450
  28.6100       469
  28.6320       433
  28.6540       441
  28.6760       448
  28.6980       412
  28.7200       414
  28.7420       451
  28.7640       416
  28.7860       455
  28.8080       454
  28.8300       458
  28.8520       447
  28.8740       448
  28.8960       441
  28.9180       467
  28.9400       465
  28.9620       428
  28.9840       400
  29.0060       449
  29.0280       450
  29.0500       455
  29.0720       448
  29.0940       423
  29.1160       454
  29.1380       436
  29.1600       451
  29.1820       416
  29.2040       453
  29.2260       462
  29.2480       442
  29.2700       444
  29.2920       438
  29.3140       491
  29.3360       461
  29.3580       459
  29.3800       430
  29.4020       439
  29.4240       428
  29.4460       462
  29.4680       463
  29.4900       438
  29.5120       402
  29.5340       418
  29.5560       447
  29.5780       390
  29.6000       375
  29.6220       467
  29.6440       446
  29.6660       407
  29.6880       417
  29.7100       457
  29.7320       449
  29.7540       478
  29.7760       422
  29.7980       471
  29.8200       461
  29.8420       443
  29.8640       448
  29.8860       433
  29.9080       420
  29.9300       457
  29.9520       434
  29.9740       439
  29.9960       483
  30.0180       438
  30.0400       450
  30.0620       469
  30.0840       463
  30.1060       427
  30.1280       439
  30.1500       408
  30.1720       427
  30.1940       425
  30.2160       407
  30.2380       427
  30.2600       429
  30.2820       452
  30.3040       420
  30.3260       411
  30.3480       440
  30.3700       397
  30.3920       443
  30.4140       418
  30.4360       484
  30.4580       433
  30.4800       435
  30.5020       387
  30.5240       463
  30.5460       419
  30.5680       439
  30.5900       458
  30.6120       415
  30.6340       441
  30.6560       454
  30.6780       396
  30.7000       428
  30.7220       439
  30.7440       429
  30.7660       473
  30.7880       399
  30.8100       432
  30.8320       384
  30.8540       443
  30.8760       423
  30.8980       426
  30.9200       436
  30.9420       429
  30.9640       423
  30.9860       422
  31.0080       415
  31.0300       421
  31.0520       429
  31.0740       415
  31.0960       443
  31.1180       396
  31.1400       412
  31.1620       430
  31.1840       433
  31.2060       403
  31.2280       425
  31.2500       439
  31.2720       432
  31.2940       449
  31.3160       392
  31.3380       406
  31.3600       411
  31.3820       428
  31.4040       442
  31.4260       420
  31.4480       430
  31.4700       442
  31.4920       436
  31.5140       440
  31.5360       452
  31.5580       446
  31.5800       448
  31.6020       446
  31.6240       423
  31.6460       437
  31.6680       455
  31.6900       397
  31.7120       434
  31.7340       436
  31.7560       464
  31.7780       377
  31.8000       416
  31.8220       425
  31.8440       420
  31.8660       428
  31.8880       421
  31.9100       415
  31.9320       426
  31.9540       408
  31.9760       374
  31.9980       423
  32.0200       421
  32.0420       417
  32.0640       383
  32.0860       427
  32.1080       397
  32.1300       438
  32.1520       414
  32.1740       411
  32.1960       380
  32.2180       378
  32.2400       443
  32.2620       412
  32.2840       415
  32.3060       410
  32.3280       411
  32.3500       397
  32.3720       418
  32.3940       446
  32.4160       428
  32.4380       429
  32.4600       366
  32.4820       414
  32.5040       400
  32.5260       433
  32.5480       424
  32.5700       408
  32.5920       451
  32.6140       403
  32.6360       427
  32.6580       415
  32.6800       471
  32.7020       426
  32.7240       426
  32.7460       400
  32.7680       410
  32.7900       410
  32.8120       422
  32.8340       368
  32.8560       424
  32.8780       429
  32.9000       428
  32.9220       428
  32.9440       408
  32.9660       436
  32.9880       431
  33.0100       389
  33.0320       394
  33.0540       360
  33.0760       391
  33.0980       421
  33.1200       415
  33.1420       438
  33.1640       465
  33.1860       359
  33.2080       429
  33.2300       412
  33.2520       434
  33.2740       403
  33.2960       436
  33.3180       373
  33.3400       394
  33.3620       397
  33.3840       408
  33.4060       417
  33.4280       418
  33.4500       421
  33.4720       418
  33.4940       420
  33.5160       418
  33.5380       428
  33.5600       396
  33.5820       440
  33.6040       422
  33.6260       446
  33.6480       394
  33.6700       411
  33.6920       451
  33.7140       408
  33.7360       388
  33.7580       404
  33.7800       402
  33.8020       360
  33.8240       400
  33.8460       409
  33.8680       400
  33.8900       404
  33.9120       423
  33.9340       379
  33.9560       415
  33.9780       407
  34.0000       424
  34.0220       430
  34.0440       420
  34.0660       365
  34.0880       428
  34.1100       412
  34.1320       404
  34.1540       406
  34.1760       405
  34.1980       394
  34.2200       431
  34.2420       406
  34.2640       420
  34.2860       415
  34.3080       431
  34.3300       400
  34.3520       405
  34.3740       420
  34.3960       449
  34.4180       363
  34.4400       437
  34.4620       377
  34.4840       432
  34.5060       382
  34.5280       379
  34.5500       403
  34.5720       383
  34.5940       418
  34.6160       422
  34.6380       383
  34.6600       410
  34.6820       370
  34.7040       414
  34.7260       418
  34.7480       430
  34.7700       393
  34.7920       439
  34.8140       379
  34.8360       391
  34.8580       387
  34.8800       436
  34.9020       389
  34.9240       385
  34.9460       394
  34.9680       409
  34.9900       414
  35.0120       427
  35.0340       434
  35.0560       414
  35.0780       428
  35.1000       379
  35.1220       382
  35.1440       410
  35.1660       358
  35.1880       406
  35.2100       389
  35.2320       384
  35.2540       407
  35.2760       401
  35.2980       393
  35.3200       370
  35.3420       396
  35.3640       409
  35.3860       369
  35.4080       389
  35.4300       400
  35.4520       393
  35.4740       376
  35.4960       429
  35.5180       386
  35.5400       412
  35.5620       374
  35.5840       428
  35.6060       408
  35.6280       369
  35.6500       385
  35.6720       417
  35.6940       412
  35.7160       366
  35.7380       418
  35.7600       385
  35.7820       363
  35.8040       373
  35.8260       376
  35.8480       428
  35.8700       400
  35.8920       411
  35.9140       400
  35.9360       390
  35.9580       436
  35.9800       377
  36.0020       344
  36.0240       379
  36.0460       442
  36.0680       399
  36.0900       402
  36.1120       407
  36.1340       374
  36.1560       415
  36.1780       387
  36.2000       383
  36.2220       377
  36.2440       378
  36.2660       400
  36.2880       401
  36.3100       403
  36.3320       391
  36.3540       393
  36.3760       378
  36.3980       396
  36.4200       384
  36.4420       398
  36.4640       405
  36.4860       401
  36.5080       434
  36.5300       418
  36.5520       411
  36.5740       373
  36.5960       391
  36.6180       395
  36.6400       379
  36.6620       394
  36.6840       414
  36.7060       366
  36.7280       416
  36.7500       354
  36.7720       384
  36.7940       419
  36.8160       399
  36.8380       371
  36.8600       373
  36.8820       364
  36.9040       415
  36.9260       388
  36.9480       389
  36.9700       436
  36.9920       360
  37.0140       413
  37.0360       415
  37.0580       382
  37.0800       369
  37.1020       413
  37.1240       377
  37.1460       400
  37.1680       399
  37.1900       455
  37.2120       379
  37.2340       399
  37.2560       380
  37.2780       359
  37.3000       434
  37.3220       417
  37.3440       411
  37.3660       369
  37.3880       400
  37.4100       376
  37.4320       440
  37.4540       416
  37.4760       414
  37.4980       439
  37.5200       423
  37.5420       432
  37.5640       408
  37.5860       414
  37.6080       427
  37.6300       418
  37.6520       420
  37.6740       459
  37.6960       462
  37.7180       480
  37.7400       444
  37.7620       476
  37.7840       468
  37.8060       456
  37.8280       449
  37.8500       450
  37.8720       420
  37.8940       446
  37.9160       401
  37.9380       430
  37.9600       444
  37.9820       376
  38.0040       415
  38.0260       437
  38.0480       423
  38.0700       425
  38.0920       441
  38.1140       400
  38.1360       427
  38.1580       390
  38.1800       439
  38.2020       425
  38.2240       446
  38.2460       498
  38.2680       403
  38.2900       436
  38.3120       441
  38.3340       456
  38.3560       443
  38.3780       415
  38.4000       402
  38.4220       419
  38.4440       451
  38.4660       425
  38.4880       434
  38.5100       408
  38.5320       416
  38.5540       408
  38.5760       396
  38.5980       392
  38.6200       396
  38.6420       384
  38.6640       378
  38.6860       430
  38.7080       430
  38.7300       412
  38.7520       389
  38.7740       370
  38.7960       390
  38.8180       424
  38.8400       381
  38.8620       402
  38.8840       397
  38.9060       386
  38.9280       378
  38.9500       436
  38.9720       377
  38.9940       401
  39.0160       388
  39.0380       399
  39.0600       391
  39.0820       384
  39.1040       391
  39.1260       404
  39.1480       408
  39.1700       416
  39.1920       393
  39.2140       407
  39.2360       432
  39.2580       395
  39.2800       367
  39.3020       399
  39.3240       399
  39.3460       396
  39.3680       396
  39.3900       398
  39.4120       425
  39.4340       411
  39.4560       372
  39.4780       376
  39.5000       414
  39.5220       371
  39.5440       373
  39.5660       384
  39.5880       395
  39.6100       391
  39.6320       393
  39.6540       414
  39.6760       375
  39.6980       389
  39.7200       398
  39.7420       382
  39.7640       397
  39.7860       400
  39.8080       387
  39.8300       439
  39.8520       411
  39.8740       403
  39.8960       433
  39.9180       391
  39.9400       411
  39.9620       412
  39.9840       407
  40.0060       415
  40.0280       425
  40.0500       376
  40.0720       438
  40.0940       404
  40.1160       404
  40.1380       407
  40.1600       408
  40.1820       391
  40.2040       427
  40.2260       399
  40.2480       434
  40.2700       402
  40.2920       382
  40.3140       407
  40.3360       436
  40.3580       415
  40.3800       441
  40.4020       402
  40.4240       420
  40.4460       446
  40.4680       417
  40.4900       441
  40.5120       483
  40.5340       438
  40.5560       462
  40.5780       439
  40.6000       417
  40.6220       449
  40.6440       464
  40.6660       466
  40.6880       459
  40.7100       432
  40.7320       469
  40.7540       441
  40.7760       466
  40.7980       438
  40.8200       454
  40.8420       431
  40.8640       427
  40.8860       469
  40.9080       443
  40.9300       449
  40.9520       433
  40.9740       461
  40.9960       472
  41.0180       451
  41.0400       471
  41.0620       495
  41.0840       511
  41.1060       492
  41.1280       479
  41.1500       477
  41.1720       478
  41.1940       527
  41.2160       519
  41.2380       524
  41.2600       485
  41.2820       533
  41.3040       574
  41.3260       579
  41.3480       606
  41.3700       614
  41.3920       686
  41.4140       677
  41.4360       688
  41.4580       716
  41.4800       772
  41.5020       771
  41.5240       818
  41.5460       939
  41.5680      1024
  41.5900      1074
  41.6120      1184
  41.6340      1353
  41.6560      1473
  41.6780      1629
  41.7000      1898
  41.7220      2117
  41.7440      2374
  41.7660      2634
  41.7880      3125
  41.8100      3368
  41.8320      3623
  41.8540      3943
  41.8760      4360
  41.8980      4269
  41.9200      4301
  41.9420      4080
  41.9640      3992
  41.9860      3845
  42.0080      3483
  42.0300      3161
  42.0520      2859
  42.0740      2483
  42.0960      2283
  42.1180      1951
  42.1400      1693
  42.1620      1498
  42.1840      1346
  42.2060      1223
  42.2280      1091
  42.2500      1029
  42.2720       944
  42.2940       860
  42.3160       839
  42.3380       762
  42.3600       734
  42.3820       676
  42.4040       626
  42.4260       623
  42.4480       576
  42.4700       557
  42.4920       537
  42.5140       534
  42.5360       547
  42.5580       510
  42.5800       481
  42.6020       497
  42.6240       485
  42.6460       494
  42.6680       501
  42.6900       468
  42.7120       451
  42.7340       445
  42.7560       477
  42.7780       467
  42.8000       468
  42.8220       442
  42.8440       473
  42.8660       468
  42.8880       462
  42.9100       455
  42.9320       416
  42.9540       447
  42.9760       453
  42.9980       428
  43.0200       453
  43.0420       444
  43.0640       450
  43.0860       471
  43.1080       414
  43.1300       443
  43.1520       420
  43.1740       401
  43.1960       423
  43.2180       421
  43.2400       453
  43.2620       418
  43.2840       416
  43.3060       415
  43.3280       409
  43.3500       443
  43.3720       449
  43.3940       450
  43.4160       425
  43.4380       434
  43.4600       418
  43.4820       399
  43.5040       421
  43.5260       415
  43.5480       455
  43.5700       408
  43.5920       405
  43.6140       425
  43.6360       442
  43.6580       389
  43.6800       423
  43.7020       416
  43.7240       423
  43.7460       427
  43.7680       451
  43.7900       461
  43.8120       460
  43.8340       423
  43.8560       423
  43.8780       424
  43.9000       412
  43.9220       423
  43.9440       433
  43.9660       395
  43.9880       424
  44.0100       409
  44.0320       386
  44.0540       429
  44.0760       422
  44.0980       393
  44.1200       424
  44.1420       423
  44.1640       416
  44.1860       416
  44.2080       427
  44.2300       385
  44.2520       422
  44.2740       428
  44.2960       414
  44.3180       387
  44.3400       364
  44.3620       394
  44.3840       425
  44.4060       385
  44.4280       422
  44.4500       451
  44.4720       437
  44.4940       392
  44.5160       415
  44.5380       376
  44.5600       386
  44.5820       383
  44.6040       432
  44.6260       383
  44.6480       408
  44.6700       372
  44.6920       407
  44.7140       415
  44.7360       410
  44.7580       459
  44.7800       407
  44.8020       411
  44.8240       395
  44.8460       394
  44.8680       433
  44.8900       388
  44.9120       389
  44.9340       400
  44.9560       377
  44.9780       425
  45.0000       392
  45.0220       378
  45.0440       394
  45.0660       398
  45.0880       375
  45.1100       404
  45.1320       386
  45.1540       402
  45.1760       414
  45.1980       408
  45.2200       386
  45.2420       373
  45.2640       382
  45.2860       393
  45.3080       413
  45.3300       400
  45.3520       416
  45.3740       392
  45.3960       368
  45.4180       405
  45.4400       406
  45.4620       400
  45.4840       403
  45.5060       394
  45.5280       403
  45.5500       385
  45.5720       386
  45.5940       390
  45.6160       416
  45.6380       410
  45.6600       374
  45.6820       411
  45.7040       375
  45.7260       395
  45.7480       395
  45.7700       407
  45.7920       389
  45.8140       381
  45.8360       363
  45.8580       390
  45.8800       381
  45.9020       384
  45.9240       401
  45.9460       392
  45.9680       388
  45.9900       383
  46.0120       388
  46.0340       394
  46.0560       443
  46.0780       400
  46.1000       366
  46.1220       366
  46.1440       427
  46.1660       376
  46.1880       391
  46.2100       415
  46.2320       402
  46.2540       414
  46.2760       410
  46.2980       409
  46.3200       375
  46.3420       414
  46.3640       443
  46.3860       387
  46.4080       400
  46.4300       386
  46.4520       382
  46.4740       389
  46.4960       426
  46.5180       413
  46.5400       372
  46.5620       426
  46.5840       397
  46.6060       402
  46.6280       421
  46.6500       351
  46.6720       429
  46.6940       399
  46.7160       404
  46.7380       404
  46.7600       359
  46.7820       402
  46.8040       402
  46.8260       387
  46.8480       443
  46.8700       429
  46.8920       444
  46.9140       410
  46.9360       422
  46.9580       423
  46.9800       412
  47.0020       421
  47.0240       397
  47.0460       430
  47.0680       401
  47.0900       410
  47.1120       445
  47.1340       430
  47.1560       474
  47.1780       427
  47.2000       400
  47.2220       444
  47.2440       471
  47.2660       434
  47.2880       393
  47.3100       414
  47.3320       447
  47.3540       437
  47.3760       445
  47.3980       439
  47.4200       445
  47.4420       428
  47.4640       445
  47.4860       451
  47.5080       426
  47.5300       446
  47.5520       440
  47.5740       484
  47.5960       453
  47.6180       484
  47.6400       478
  47.6620       451
  47.6840       469
  47.7060       421
  47.7280       465
  47.7500       479
  47.7720       508
  47.7940       466
  47.8160       505
  47.8380       490
  47.8600       536
  47.8820       530
  47.9040       526
  47.9260       564
  47.9480       562
  47.9700       578
  47.9920       528
  48.0140       530
  48.0360       569
  48.0580       571
  48.0800       618
  48.1020       664
  48.1240       654
  48.1460       698
  48.1680       771
  48.1900       773
  48.2120       736
  48.2340       766
  48.2560       838
  48.2780       890
  48.3000       937
  48.3220       990
  48.3440      1085
  48.3660      1125
  48.3880      1211
  48.4100      1292
  48.4320      1345
  48.4540      1437
  48.4760      1473
  48.4980      1590
  48.5200      1834
  48.5420      1889
  48.5640      1939
  48.5860      2045
  48.6080      2120
  48.6300      2224
  48.6520      2325
  48.6740      2246
  48.6960      2317
  48.7180      2250
  48.7400      2224
  48.7620      2125
  48.7840      2063
  48.8060      2004
  48.8280      1976
  48.8500      1803
  48.8720      1660
  48.8940      1587
  48.9160      1455
  48.9380      1412
  48.9600      1251
  48.9820      1202
  49.0040      1079
  49.0260      1051
  49.0480       939
  49.0700       852
  49.0920       833
  49.1140       836
  49.1360       745
  49.1580       728
  49.1800       660
  49.2020       675
  49.2240       619
  49.2460       584
  49.2680       623
  49.2900       568
  49.3120       610
  49.3340       553
  49.3560       545
  49.3780       522
  49.4000       522
  49.4220       518
  49.4440       539
  49.4660       511
  49.4880       453
  49.5100       483
  49.5320       490
  49.5540       482
  49.5760       447
  49.5980       467
  49.6200       463
  49.6420       440
  49.6640       443
  49.6860       440
  49.7080       424
  49.7300       429
  49.7520       429
  49.7740       431
  49.7960       454
  49.8180       469
  49.8400       429
  49.8620       422
  49.8840       396
  49.9060       429
  49.9280       407
  49.9500       412
  49.9720       429
  49.9940       459
  50.0160       452
  50.0380       441
  50.0600       407
  50.0820       416
  50.1040       436
  50.1260       423
  50.1480       384
  50.1700       442
  50.1920       350
  50.2140       423
  50.2360       376
  50.2580       395
  50.2800       423
  50.3020       405
  50.3240       416
  50.3460       391
  50.3680       404
  50.3900       372
  50.4120       401
  50.4340       419
  50.4560       405
  50.4780       407
  50.5000       446
  50.5220       391
  50.5440       412
  50.5660       417
  50.5880       421
  50.6100       401
  50.6320       398
  50.6540       408
  50.6760       415
  50.6980       408
  50.7200       376
  50.7420       378
  50.7640       408
  50.7860       395
  50.8080       394
  50.8300       384
  50.8520       420
  50.8740       385
  50.8960       407
  50.9180       383
  50.9400       389
  50.9620       358
  50.9840       420
  51.0060       428
  51.0280       368
  51.0500       374
  51.0720       366
  51.0940       408
  51.1160       391
  51.1380       427
  51.1600       395
  51.1820       385
  51.2040       402
  51.2260       412
  51.2480       395
  51.2700       399
  51.2920       386
  51.3140       374
  51.3360       403
  51.3580       396
  51.3800       370
  51.4020       379
  51.4240       370
  51.4460       406
  51.4680       401
  51.4900       387
  51.5120       416
  51.5340       361
  51.5560       376
  51.5780       347
  51.6000       368
  51.6220       386
  51.6440       401
  51.6660       387
  51.6880       366
  51.7100       386
  51.7320       370
  51.7540       429
  51.7760       378
  51.7980       392
  51.8200       381
  51.8420       400
  51.8640       370
  51.8860       356
  51.9080       359
  51.9300       407
  51.9520       388
  51.9740       370
  51.9960       372
  52.0180       427
  52.0400       415
  52.0620       411
  52.0840       372
  52.1060       414
  52.1280       384
  52.1500       357
  52.1720       355
  52.1940       348
  52.2160       386
  52.2380       400
  52.2600       390
  52.2820       402
  52.3040       398
  52.3260       401
  52.3480       353
  52.3700       437
  52.3920       412
  52.4140       404
  52.4360       392
  52.4580       401
  52.4800       398
  52.5020       371
  52.5240       406
  52.5460       408
  52.5680       382
  52.5900       426
  52.6120       414
  52.6340       412
  52.6560       362
  52.6780       391
  52.7000       385
  52.7220       393
  52.7440       432
  52.7660       391
  52.7880       406
  52.8100       400
  52.8320       414
  52.8540       395
  52.8760       380
  52.8980       393
  52.9200       406
  52.9420       366
  52.9640       393
  52.9860       385
  53.0080       392
  53.0300       405
  53.0520       388
  53.0740       409
  53.0960       384
  53.1180       401
  53.1400       410
  53.1620       371
  53.1840       364
  53.2060       419
  53.2280       389
  53.2500       428
  53.2720       392
  53.2940       395
  53.3160       380
  53.3380       403
  53.3600       365
  53.3820       373
  53.4040       409
  53.4260       413
  53.4480       410
  53.4700       409
  53.4920       385
  53.5140       450
  53.5360       425
  53.5580       389
  53.5800       382
  53.6020       440
  53.6240       409
  53.6460       375
  53.6680       406
  53.6900       372
  53.7120       387
  53.7340       393
  53.7560       418
  53.7780       404
  53.8000       436
  53.8220       377
  53.8440       363
  53.8660       391
  53.8880       365
  53.9100       358
  53.9320       430
  53.9540       397
  53.9760       385
  53.9980       378
  54.0200       413
  54.0420       374
  54.0640       398
  54.0860       394
  54.1080       396
  54.1300       390
  54.1520       384
  54.1740       377
  54.1960       412
  54.2180       398
  54.2400       401
  54.2620       372
  54.2840       369
  54.3060       382
  54.3280       452
  54.3500       397
  54.3720       433
  54.3940       426
  54.4160       348
  54.4380       393
  54.4600       394
  54.4820       381
  54.5040       413
  54.5260       409
  54.5480       412
  54.5700       397
  54.5920       362
  54.6140       425
  54.6360       429
  54.6580       386
  54.6800       408
  54.7020       403
  54.7240       396
  54.7460       369
  54.7680       405
  54.7900       382
  54.8120       439
  54.8340       419
  54.8560       395
  54.8780       402
  54.9000       461
  54.9220       384
  54.9440       410
  54.9660       378
  54.9880       375
  55.0100       386
  55.0320       413
  55.0540       373
  55.0760       391
  55.0980       362
  55.1200       406
  55.1420       400
  55.1640       363
  55.1860       387
  55.2080       392
  55.2300       368
  55.2520       397
  55.2740       374
  55.2960       406
  55.3180       383
  55.3400       405
  55.3620       408
  55.3840       410
  55.4060       381
  55.4280       411
  55.4500       425
  55.4720       380
  55.4940       400
  55.5160       373
  55.5380       394
  55.5600       401
  55.5820       400
  55.6040       413
  55.6260       385
  55.6480       384
  55.6700       366
  55.6920       412
  55.7140       386
  55.7360       394
  55.7580       399
  55.7800       381
  55.8020       391
  55.8240       386
  55.8460       413
  55.8680       432
  55.8900       421
  55.9120       360
  55.9340       410
  55.9560       360
  55.9780       414
  56.0000       384
  56.0220       416
  56.0440       400
  56.0660       372
  56.0880       383
  56.1100       401
  56.1320       394
  56.1540       425
  56.1760       368
  56.1980       391
  56.2200       403
  56.2420       407
  56.2640       414
  56.2860       439
  56.3080       396
  56.3300       383
  56.3520       405
  56.3740       428
  56.3960       406
  56.4180       396
  56.4400       419
  56.4620       390
  56.4840       394
  56.5060       373
  56.5280       410
  56.5500       392
  56.5720       431
  56.5940       372
  56.6160       351
  56.6380       449
  56.6600       418
  56.6820       382
  56.7040       406
  56.7260       427
  56.7480       426
  56.7700       390
  56.7920       377
  56.8140       441
  56.8360       410
  56.8580       432
  56.8800       403
  56.9020       411
  56.9240       416
  56.9460       411
  56.9680       416
  56.9900       400
  57.0120       393
  57.0340       398
  57.0560       425
  57.0780       361
  57.1000       433
  57.1220       394
  57.1440       381
  57.1660       434
  57.1880       408
  57.2100       413
  57.2320       385
  57.2540       382
  57.2760       404
  57.2980       410
  57.3200       396
  57.3420       390
  57.3640       404
  57.3860       386
  57.4080       400
  57.4300       414
  57.4520       397
  57.4740       382
  57.4960       356
  57.5180       406
  57.5400       387
  57.5620       401
  57.5840       396
  57.6060       434
  57.6280       389
  57.6500       410
  57.6720       395
  57.6940       416
  57.7160       419
  57.7380       360
  57.7600       384
  57.7820       411
  57.8040       373
  57.8260       409
  57.8480       411
  57.8700       389
  57.8920       418
  57.9140       406
  57.9360       427
  57.9580       403
  57.9800       424
  58.0020       437
  58.0240       388
  58.0460       404
  58.0680       378
  58.0900       423
  58.1120       435
  58.1340       344
  58.1560       397
  58.1780       370
  58.2000       369
  58.2220       380
  58.2440       403
  58.2660       416
  58.2880       389
  58.3100       404
  58.3320       402
  58.3540       376
  58.3760       406
  58.3980       369
  58.4200       382
  58.4420       371
  58.4640       351
  58.4860       384
  58.5080       434
  58.5300       383
  58.5520       387
  58.5740       396
  58.5960       354
  58.6180       387
  58.6400       405
  58.6620       436
  58.6840       399
  58.7060       401
  58.7280       382
  58.7500       398
  58.7720       394
  58.7940       392
  58.8160       380
  58.8380       387
  58.8600       415
  58.8820       395
  58.9040       447
  58.9260       413
  58.9480       417
  58.9700       416
  58.9920       408
  59.0140       403
  59.0360       393
  59.0580       433
  59.0800       397
  59.1020       394
  59.1240       396
  59.1460       378
  59.1680       394
  59.1900       374
  59.2120       400
  59.2340       372
  59.2560       409
  59.2780       431
  59.3000       385
  59.3220       420
  59.3440       438
  59.3660       404
  59.3880       434
  59.4100       395
  59.4320       417
  59.4540       399
  59.4760       401
  59.4980       411
  59.5200       393
  59.5420       364
  59.5640       397
  59.5860       398
  59.6080       408
  59.6300       416
  59.6520       374
  59.6740       367
  59.6960       428
  59.7180       407
  59.7400       399
  59.7620       388
  59.7840       409
  59.8060       418
  59.8280       398
  59.8500       404
  59.8720       385
  59.8940       390
  59.9160       378
  59.9380       392
  59.9600       378
  59.9820       401
  60.0040       380
  60.0260       456
  60.0480       400
  60.0700       367
  60.0920       410
  60.1140       386
  60.1360       406
  60.1580       404
  60.1800       436
  60.2020       420
  60.2240       422
  60.2460       358
  60.2680       411
  60.2900       409
  60.3120       382
  60.3340       388
  60.3560       417
  60.3780       376
  60.4000       399
  60.4220       423
  60.4440       416
  60.4660       399
  60.4880       413
  60.5100       370
  60.5320       414
  60.5540       414
  60.5760       396
  60.5980       363
  60.6200       390
  60.6420       423
  60.6640       417
  60.6860       392
  60.7080       404
  60.7300       389
  60.7520       418
  60.7740       389
  60.7960       381
  60.8180       405
  60.8400       361
  60.8620       387
  60.8840       387
  60.9060       419
  60.9280       392
  60.9500       402
  60.9720       440
  60.9940       407
  61.0160       440
  61.0380       420
  61.0600       412
  61.0820       404
  61.1040       389
  61.1260       410
  61.1480       402
  61.1700       410
  61.1920       404
  61.2140       415
  61.2360       407
  61.2580       389
  61.2800       390
  61.3020       352
  61.3240       389
  61.3460       373
  61.3680       418
  61.3900       373
  61.4120       389
  61.4340       394
  61.4560       380
  61.4780       399
  61.5000       414
  61.5220       383
  61.5440       409
  61.5660       408
  61.5880       413
  61.6100       402
  61.6320       397
  61.6540       391
  61.6760       414
  61.6980       438
  61.7200       393
  61.7420       417
  61.7640       419
  61.7860       367
  61.8080       398
  61.8300       390
  61.8520       461
  61.8740       393
  61.8960       412
  61.9180       374
  61.9400       414
  61.9620       413
  61.9840       400
  62.0060       408
  62.0280       431
  62.0500       451
  62.0720       398
  62.0940       413
  62.1160       384
  62.1380       416
  62.1600       387
  62.1820       359
  62.2040       391
  62.2260       419
  62.2480       403
  62.2700       412
  62.2920       403
  62.3140       420
  62.3360       403
  62.3580       387
  62.3800       428
  62.4020       388
  62.4240       393
  62.4460       366
  62.4680       386
  62.4900       422
  62.5120       430
  62.5340       434
  62.5560       414
  62.5780       397
  62.6000       413
  62.6220       388
  62.6440       389
  62.6660       420
  62.6880       372
  62.7100       404
  62.7320       414
  62.7540       387
  62.7760       405
  62.7980       389
  62.8200       396
  62.8420       390
  62.8640       365
  62.8860       358
  62.9080       402
  62.9300       404
  62.9520       399
  62.9740       399
  62.9960       396
  63.0180       426
  63.0400       366
  63.0620       412
  63.0840       429
  63.1060       386
  63.1280       400
  63.1500       398
  63.1720       399
  63.1940       393
  63.2160       416
  63.2380       404
  63.2600       408
  63.2820       359
  63.3040       446
  63.3260       427
  63.3480       421
  63.3700       428
  63.3920       404
  63.4140       427
  63.4360       391
  63.4580       413
  63.4800       426
  63.5020       391
  63.5240       410
  63.5460       397
  63.5680       394
  63.5900       471
  63.6120       437
  63.6340       425
  63.6560       422
  63.6780       389
  63.7000       420
  63.7220       409
  63.7440       383
  63.7660       421
  63.7880       371
  63.8100       437
  63.8320       414
  63.8540       368
  63.8760       434
  63.8980       442
  63.9200       373
  63.9420       379
  63.9640       410
  63.9860       417
  64.0080       385
  64.0300       408
  64.0520       415
  64.0740       360
  64.0960       386
  64.1180       406
  64.1400       410
  64.1620       413
  64.1840       426
  64.2060       378
  64.2280       411
  64.2500       411
  64.2720       407
  64.2940       435
  64.3160       393
  64.3380       396
  64.3600       396
  64.3820       441
  64.4040       405
  64.4260       396
  64.4480       402
  64.4700       405
  64.4920       420
  64.5140       383
  64.5360       425
  64.5580       404
  64.5800       392
  64.6020       412
  64.6240       415
  64.6460       419
  64.6680       416
  64.6900       378
  64.7120       449
  64.7340       409
  64.7560       431
  64.7780       383
  64.8000       430
  64.8220       387
  64.8440       394
  64.8660       407
  64.8880       405
  64.9100       403
  64.9320       409
  64.9540       403
  64.9760       427
  64.9980       402
  65.0200       400
  65.0420       373
  65.0640       426
  65.0860       384
  65.1080       403
  65.1300       384
  65.1520       406
  65.1740       372
  65.1960       434
  65.2180       409
  65.2400       400
  65.2620       406
  65.2840       422
  65.3060       404
  65.3280       416
  65.3500       389
  65.3720       409
  65.3940       382
  65.4160       418
  65.4380       383
  65.4600       392
  65.4820       372
  65.5040       405
  65.5260       365
  65.5480       414
  65.5700       422
  65.5920       398
  65.6140       361
  65.6360       410
  65.6580       390
  65.6800       403
  65.7020       407
  65.7240       399
  65.7460       441
  65.7680       398
  65.7900       381
  65.8120       409
  65.8340       414
  65.8560       441
  65.8780       378
  65.9000       417
  65.9220       403
  65.9440       390
  65.9660       407
  65.9880       387
  66.0100       430
  66.0320       400
  66.0540       410
  66.0760       366
  66.0980       441
  66.1200       432
  66.1420       364
  66.1640       379
  66.1860       407
  66.2080       415
  66.2300       384
  66.2520       416
  66.2740       406
  66.2960       418
  66.3180       387
  66.3400       410
  66.3620       401
  66.3840       414
  66.4060       392
  66.4280       382
  66.4500       406
  66.4720       411
  66.4940       450
  66.5160       411
  66.5380       377
  66.5600       389
  66.5820       419
  66.6040       390
  66.6260       422
  66.6480       406
  66.6700       389
  66.6920       415
  66.7140       388
  66.7360       415
  66.7580       385
  66.7800       409
  66.8020       439
  66.8240       386
  66.8460       415
  66.8680       382
  66.8900       415
  66.9120       387
  66.9340       385
  66.9560       405
  66.9780       367
  67.0000       409
  67.0220       371
  67.0440       412
  67.0660       420
  67.0880       435
  67.1100       406
  67.1320       398
  67.1540       394
  67.1760       364
  67.1980       413
  67.2200       373
  67.2420       399
  67.2640       408
  67.2860       383
  67.3080       434
  67.3300       421
  67.3520       384
  67.3740       381
  67.3960       396
  67.4180       404
  67.4400       378
  67.4620       391
  67.4840       445
  67.5060       384
  67.5280       412
  67.5500       412
  67.5720       398
  67.5940       379
  67.6160       417
  67.6380       386
  67.6600       412
  67.6820       427
  67.7040       402
  67.7260       404
  67.7480       370
  67.7700       385
  67.7920       409
  67.8140       375
  67.8360       405
  67.8580       372
  67.8800       420
  67.9020       379
  67.9240       372
  67.9460       424
  67.9680       388
  67.9900       406
  68.0120       396
  68.0340       427
  68.0560       407
  68.0780       383
  68.1000       378
  68.1220       384
  68.1440       398
  68.1660       409
  68.1880       412
  68.2100       392
  68.2320       390
  68.2540       417
  68.2760       363
  68.2980       392
  68.3200       396
  68.3420       369
  68.3640       394
  68.3860       395
  68.4080       385
  68.4300       413
  68.4520       422
  68.4740       426
  68.4960       401
  68.5180       410
  68.5400       396
  68.5620       389
  68.5840       410
  68.6060       404
  68.6280       392
  68.6500       413
  68.6720       404
  68.6940       412
  68.7160       397
  68.7380       403
  68.7600       409
  68.7820       417
  68.8040       396
  68.8260       406
  68.8480       378
  68.8700       415
  68.8920       400
  68.9140       393
  68.9360       406
  68.9580       452
  68.9800       422
  69.0020       386
  69.0240       406
  69.0460       418
  69.0680       400
  69.0900       392
  69.1120       424
  69.1340       414
  69.1560       410
  69.1780       401
  69.2000       456
  69.2220       429
  69.2440       403
  69.2660       443
  69.2880       383
  69.3100       412
  69.3320       420
  69.3540       389
  69.3760       393
  69.3980       423
  69.4200       392
  69.4420       421
  69.4640       407
  69.4860       414
  69.5080       391
  69.5300       394
  69.5520       392
  69.5740       467
  69.5960       421
  69.6180       422
  69.6400       427
  69.6620       427
  69.6840       403
  69.7060       409
  69.7280       383
  69.7500       449
  69.7720       451
  69.7940       389
  69.8160       393
  69.8380       399
  69.8600       410
  69.8820       415
  69.9040       358
  69.9260       421
  69.9480       451
  69.9700       452
  69.9920       447
  70.0140       476
  70.0360       465
  70.0580       434
  70.0800       419
  70.1020       439
  70.1240       412
  70.1460       467
  70.1680       419
  70.1900       438
  70.2120       443
  70.2340       443
  70.2560       421
  70.2780       424
  70.3000       416
  70.3220       433
  70.3440       397
  70.3660       439
  70.3880       481
  70.4100       449
  70.4320       430
  70.4540       437
  70.4760       438
  70.4980       466
  70.5200       434
  70.5420       438
  70.5640       479
  70.5860       482
  70.6080       473
  70.6300       529
  70.6520       491
  70.6740       515
  70.6960       551
  70.7180       539
  70.7400       531
  70.7620       521
  70.7840       532
  70.8060       607
  70.8280       628
  70.8500       629
  70.8720       653
  70.8940       664
  70.9160       684
  70.9380       692
  70.9600       750
  70.9820       752
  71.0040       770
  71.0260       809
  71.0480       888
  71.0700       897
  71.0920       972
  71.1140       963
  71.1360      1013
  71.1580      1004
  71.1800      1132
  71.2020      1188
  71.2240      1138
  71.2460      1081
  71.2680      1108
  71.2900      1164
  71.3120      1173
  71.3340      1133
  71.3560      1076
  71.3780      1108
  71.4000      1064
  71.4220      1009
  71.4440      1014
  71.4660       912
  71.4880       918
  71.5100       899
  71.5320       821
  71.5540       805
  71.5760       756
  71.5980       724
  71.6200       717
  71.6420       670
  71.6640       661
  71.6860       607
  71.7080       600
  71.7300       548
  71.7520       519
  71.7740       549
  71.7960       577
  71.8180       512
  71.8400       505
  71.8620       492
  71.8840       515
  71.9060       472
  71.9280       548
  71.9500       456
  71.9720       486
  71.9940       474
  72.0160       453
  72.0380       442
  72.0600       461
  72.0820       492
  72.1040       445
  72.1260       432
  72.1480       416
  72.1700       418
  72.1920       419
  72.2140       406
  72.2360       474
  72.2580       427
  72.2800       428
  72.3020       467
  72.3240       375
  72.3460       421
  72.3680       411
  72.3900       433
  72.4120       413
  72.4340       427
  72.4560       427
  72.4780       428
  72.5000       400
  72.5220       414
  72.5440       427
  72.5660       448
  72.5880       379
  72.6100       427
  72.6320       404
  72.6540       414
  72.6760       397
  72.6980       394
  72.7200       386
  72.7420       438
  72.7640       333
  72.7860       421
  72.8080       408
  72.8300       406
  72.8520       428
  72.8740       423
  72.8960       395
  72.9180       436
  72.9400       404
  72.9620       411
  72.9840       384
  73.0060       371
  73.0280       399
  73.0500       387
  73.0720       404
  73.0940       361
  73.1160       387
  73.1380       384
  73.1600       419
  73.1820       380
  73.2040       394
  73.2260       415
  73.2480       428
  73.2700       394
  73.2920       419
  73.3140       410
  73.3360       392
  73.3580       411
  73.3800       403
  73.4020       450
  73.4240       364
  73.4460       397
  73.4680       419
  73.4900       432
  73.5120       430
  73.5340       424
  73.5560       420
  73.5780       389
  73.6000       399
  73.6220       414
  73.6440       449
  73.6660       379
  73.6880       421
  73.7100       428
  73.7320       423
  73.7540       386
  73.7760       385
  73.7980       408
  73.8200       433
  73.8420       389
  73.8640       363
  73.8860       382
  73.9080       412
  73.9300       387
  73.9520       398
  73.9740       373
  73.9960       427
  74.0180       400
  74.0400       437
  74.0620       419
  74.0840       437
  74.1060       420
  74.1280       389
  74.1500       417
  74.1720       390
  74.1940       417
  74.2160       393
  74.2380       395
  74.2600       378
  74.2820       408
  74.3040       427
  74.3260       417
  74.3480       378
  74.3700       438
  74.3920       426
  74.4140       392
  74.4360       353
  74.4580       406
  74.4800       421
  74.5020       399
  74.5240       422
  74.5460       397
  74.5680       417
  74.5900       410
  74.6120       413
  74.6340       412
  74.6560       398
  74.6780       406
  74.7000       398
  74.7220       402
  74.7440       380
  74.7660       395
  74.7880       450
  74.8100       386
  74.8320       375
  74.8540       427
  74.8760       432
  74.8980       404
  74.9200       393
  74.9420       420
  74.9640       424
  74.9860       384
  75.0080       402
  75.0300       421
  75.0520       391
  75.0740       410
  75.0960       381
  75.1180       413
  75.1400       406
  75.1620       366
  75.1840       407
  75.2060       423
  75.2280       396
  75.2500       392
  75.2720       368
  75.2940       414
  75.3160       384
  75.3380       419
  75.3600       400
  75.3820       403
  75.4040       408
  75.4260       385
  75.4480       415
  75.4700       406
  75.4920       439
  75.5140       378
  75.5360       443
  75.5580       398
  75.5800       431
  75.6020       435
  75.6240       394
  75.6460       376
  75.6680       415
  75.6900       388
  75.7120       395
  75.7340       385
  75.7560       420
  75.7780       381
  75.8000       378
  75.8220       428
  75.8440       412
  75.8660       401
  75.8880       401
  75.9100       399
  75.9320       431
  75.9540       379
  75.9760       407
  75.9980       412
  76.0200       391
  76.0420       405
  76.0640       390
  76.0860       434
  76.1080       422
  76.1300       415
  76.1520       417
  76.1740       419
  76.1960       403
  76.2180       392
  76.2400       383
  76.2620       378
  76.2840       425
  76.3060       415
  76.3280       424
  76.3500       429
  76.3720       431
  76.3940       420
  76.4160       390
  76.4380       411
  76.4600       391
  76.4820       400
  76.5040       396
  76.5260       405
  76.5480       356
  76.5700       382
  76.5920       398
  76.6140       357
  76.6360       402
  76.6580       427
  76.6800       417
  76.7020       380
  76.7240       413
  76.7460       419
  76.7680       377
  76.7900       413
  76.8120       423
  76.8340       442
  76.8560       409
  76.8780       370
  76.9000       378
  76.9220       386
  76.9440       390
  76.9660       411
  76.9880       385
  77.0100       438
  77.0320       406
  77.0540       416
  77.0760       395
  77.0980       401
  77.1200       386
  77.1420       396
  77.1640       441
  77.1860       406
  77.2080       409
  77.2300       392
  77.2520       400
  77.2740       418
  77.2960       400
  77.3180       403
  77.3400       410
  77.3620       403
  77.3840       404
  77.4060       405
  77.4280       444
  77.4500       351
  77.4720       443
  77.4940       404
  77.5160       433
  77.5380       410
  77.5600       389
  77.5820       395
  77.6040       424
  77.6260       358
  77.6480       383
  77.6700       430
  77.6920       396
  77.7140       413
  77.7360       394
  77.7580       408
  77.7800       380
  77.8020       416
  77.8240       415
  77.8460       425
  77.8680       429
  77.8900       417
  77.9120       395
  77.9340       370
  77.9560       410
  77.9780       422
  78.0000       404
  78.0220       404
  78.0440       415
  78.0660       391
  78.0880       404
  78.1100       402
  78.1320       426
  78.1540       394
  78.1760       404
  78.1980       413
  78.2200       428
  78.2420       402
  78.2640       425
  78.2860       414
  78.3080       406
  78.3300       406
  78.3520       413
  78.3740       405
  78.3960       411
  78.4180       423
  78.4400       405
  78.4620       377
  78.4840       393
  78.5060       402
  78.5280       392
  78.5500       431
  78.5720       414
  78.5940       431
  78.6160       423
  78.6380       401
  78.6600       404
  78.6820       396
  78.7040       430
  78.7260       384
  78.7480       371
  78.7700       392
  78.7920       386
  78.8140       426
  78.8360       421
  78.8580       404
  78.8800       386
  78.9020       400
  78.9240       418
  78.9460       439
  78.9680       404
  78.9900       395
  79.0120       404
  79.0340       425
  79.0560       392
  79.0780       413
  79.1000       367
  79.1220       407
  79.1440       408
  79.1660       412
  79.1880       394
  79.2100       391
  79.2320       396
  79.2540       372
  79.2760       423
  79.2980       384
  79.3200       425
  79.3420       387
  79.3640       359
  79.3860       426
  79.4080       439
  79.4300       391
  79.4520       393
  79.4740       374
  79.4960       365
  79.5180       403
  79.5400       396
  79.5620       399
  79.5840       438
  79.6060       423
  79.6280       426
  79.6500       408
  79.6720       406
  79.6940       422
  79.7160       399
  79.7380       362
  79.7600       394
  79.7820       436
  79.8040       373
  79.8260       418
  79.8480       413
  79.8700       367
  79.8920       416
  79.9140       390
  79.9360       396
  79.9580       382
  79.9800       435
  80.0020       374
  80.0240       407
  80.0460       411
  80.0680       417
  80.0900       379
  80.1120       419
  80.1340       410
  80.1560       373
  80.1780       448
  80.2000       412
  80.2220       398
  80.2440       406
  80.2660       418
  80.2880       439
  80.3100       433
  80.3320       404
  80.3540       405
  80.3760       422
  80.3980       375
  80.4200       368
  80.4420       402
  80.4640       413
  80.4860       431
  80.5080       419
  80.5300       395
  80.5520       428
  80.5740       429
  80.5960       403
  80.6180       401
  80.6400       401
  80.6620       389
  80.6840       417
  80.7060       404
  80.7280       397
  80.7500       410
  80.7720       417
  80.7940       424
  80.8160       434
  80.8380       433
  80.8600       410
  80.8820       384
  80.9040       390
  80.9260       421
  80.9480       373
  80.9700       419
  80.9920       410
  81.0140       390
  81.0360       423
  81.0580       435
  81.0800       397
  81.1020       436
  81.1240       414
  81.1460       410
  81.1680       418
  81.1900       392
  81.2120       399
  81.2340       421
  81.2560       421
  81.2780       390
  81.3000       416
  81.3220       403
  81.3440       414
  81.3660       417
  81.3880       369
  81.4100       386
  81.4320       386
  81.4540       400
  81.4760       439
  81.4980       370
  81.5200       417
  81.5420       405
  81.5640       436
  81.5860       403
  81.6080       423
  81.6300       405
  81.6520       404
  81.6740       404
  81.6960       394
  81.7180       408
  81.7400       406
  81.7620       376
  81.7840       374
  81.8060       382
  81.8280       402
  81.8500       413
  81.8720       391
  81.8940       411
  81.9160       439
  81.9380       426
  81.9600       401
  81.9820       403
  82.0040       361
  82.0260       384
  82.0480       398
  82.0700       376
  82.0920       441
  82.1140       404
  82.1360       428
  82.1580       387
  82.1800       423
  82.2020       379
  82.2240       426
  82.2460       408
  82.2680       412
  82.2900       429
  82.3120       414
  82.3340       347
  82.3560       398
  82.3780       401
  82.4000       396
  82.4220       424
  82.4440       420
  82.4660       382
  82.4880       435
  82.5100       432
  82.5320       395
  82.5540       402
  82.5760       417
  82.5980       397
  82.6200       408
  82.6420       423
  82.6640       405
  82.6860       442
  82.7080       405
  82.7300       377
  82.7520       410
  82.7740       407
  82.7960       411
  82.8180       387
  82.8400       414
  82.8620       387
  82.8840       423
  82.9060       423
  82.9280       437
  82.9500       390
  82.9720       411
  82.9940       398
  83.0160       388
  83.0380       431
  83.0600       419
  83.0820       431
  83.1040       394
  83.1260       375
  83.1480       427
  83.1700       350
  83.1920       393
  83.2140       383
  83.2360       395
  83.2580       390
  83.2800       416
  83.3020       401
  83.3240       415
  83.3460       431
  83.3680       423
  83.3900       416
  83.4120       426
  83.4340       432
  83.4560       429
  83.4780       428
  83.5000       411
  83.5220       433
  83.5440       413
  83.5660       420
  83.5880       401
  83.6100       375
  83.6320       386
  83.6540       412
  83.6760       406
  83.6980       401
  83.7200       408
  83.7420       401
  83.7640       393
  83.7860       453
  83.8080       424
  83.8300       415
  83.8520       408
  83.8740       429
  83.8960       409
  83.9180       391
  83.9400       398
  83.9620       418
  83.9840       419
  84.0060       429
  84.0280       425
  84.0500       423
  84.0720       412
  84.0940       407
  84.1160       412
  84.1380       409
  84.1600       442
  84.1820       403
  84.2040       450
  84.2260       420
  84.2480       411
  84.2700       413
  84.2920       379
  84.3140       408
  84.3360       410
  84.3580       447
  84.3800       384
  84.4020       401
  84.4240       427
  84.4460       441
  84.4680       442
  84.4900       474
  84.5120       441
  84.5340       411
  84.5560       414
  84.5780       409
  84.6000       406
  84.6220       429
  84.6440       425
  84.6660       418
  84.6880       430
  84.7100       425
  84.7320       410
  84.7540       452
  84.7760       454
  84.7980       445
  84.8200       461
  84.8420       436
  84.8640       469
  84.8860       423
  84.9080       444
  84.9300       468
  84.9520       481
  84.9740       428
  84.9960       451
  85.0180       495
  85.0400       483
  85.0620       505
  85.0840       494
  85.1060       462
  85.1280       484
  85.1500       501
  85.1720       445
  85.1940       467
  85.2160       498
  85.2380       484
  85.2600       509
  85.2820       516
  85.3040       525
  85.3260       509
  85.3480       540
  85.3700       545
  85.3920       571
  85.4140       547
  85.4360       552
  85.4580       610
  85.4800       583
  85.5020       642
  85.5240       634
  85.5460       635
  85.5680       676
  85.5900       654
  85.6120       702
  85.6340       702
  85.6560       733
  85.6780       742
  85.7000       768
  85.7220       763
  85.7440       785
  85.7660       849
  85.7880       857
  85.8100       871
  85.8320       905
  85.8540       910
  85.8760       965
  85.8980       954
  85.9200       986
  85.9420      1046
  85.9640      1014
  85.9860      1021
  86.0080      1082
  86.0300      1040
  86.0520      1075
  86.0740      1004
  86.0960      1070
  86.1180      1005
  86.1400      1046
  86.1620      1028
  86.1840      1043
  86.2060      1013
  86.2280       939
  86.2500      1016
  86.2720       904
  86.2940       928
  86.3160       887
  86.3380       941
  86.3600       832
  86.3820       848
  86.4040       778
  86.4260       790
  86.4480       802
  86.4700       718
  86.4920       728
  86.5140       668
  86.5360       703
  86.5580       673
  86.5800       673
  86.6020       609
  86.6240       637
  86.6460       615
  86.6680       594
  86.6900       565
  86.7120       569
  86.7340       483
  86.7560       552
  86.7780       504
  86.8000       527
  86.8220       514
  86.8440       508
  86.8660       479
  86.8880       493
  86.9100       478
  86.9320       489
  86.9540       447
  86.9760       454
  86.9980       482
  87.0200       489
  87.0420       459
  87.0640       448
  87.0860       442
  87.1080       430
  87.1300       455
  87.1520       456
  87.1740       442
  87.1960       430
  87.2180       396
  87.2400       456
  87.2620       433
  87.2840       429
  87.3060       445
  87.3280       403
  87.3500       438
  87.3720       438
  87.3940       439
  87.4160       366
  87.4380       452
  87.4600       451
  87.4820       431
  87.5040       426
  87.5260       400
  87.5480       461
  87.5700       434
  87.5920       406
  87.6140       448
  87.6360       397
  87.6580       393
  87.6800       433
  87.7020       404
  87.7240       420
  87.7460       418
  87.7680       388
  87.7900       426
  87.8120       434
  87.8340       429
  87.8560       402
  87.8780       431
  87.9000       385
  87.9220       438
  87.9440       417
  87.9660       436
  87.9880       427
  88.0100       417
  88.0320       411
  88.0540       392
  88.0760       410
  88.0980       372
  88.1200       415
  88.1420       402
  88.1640       393
  88.1860       422
  88.2080       378
  88.2300       405
  88.2520       417
  88.2740       433
  88.2960       400
  88.3180       368
  88.3400       416
  88.3620       421
  88.3840       387
  88.4060       426
  88.4280       408
  88.4500       422
  88.4720       389
  88.4940       405
  88.5160       416
  88.5380       399
  88.5600       433
  88.5820       416
  88.6040       397
  88.6260       405
  88.6480       394
  88.6700       397
  88.6920       416
  88.7140       387
  88.7360       409
  88.7580       448
  88.7800       430
  88.8020       410
  88.8240       406
  88.8460       433
  88.8680       418
  88.8900       374
  88.9120       401
  88.9340       418
  88.9560       440
  88.9780       454
  89.0000       378
  89.0220       397
  89.0440       403
  89.0660       402
  89.0880       391
  89.1100       394
  89.1320       433
  89.1540       389
  89.1760       418
  89.1980       377
  89.2200       439
  89.2420       402
  89.2640       426
  89.2860       405
  89.3080       447
  89.3300       401
  89.3520       399
  89.3740       408
  89.3960       398
  89.4180       445
  89.4400       394
  89.4620       409
  89.4840       399
  89.5060       414
  89.5280       412
  89.5500       385
  89.5720       406
  89.5940       409
  89.6160       413
  89.6380       435
  89.6600       411
  89.6820       386
  89.7040       414
  89.7260       425
  89.7480       447
  89.7700       394
  89.7920       419
  89.8140       407
  89.8360       408
  89.8580       420
  89.8800       414
  89.9020       387
  89.9240       429
  89.9460       403
  89.9680       371
  89.9900       419
  90.0120       393
  90.0340       440
  90.0560       411
  90.0780       426
  90.1000       436
  90.1220       425
  90.1440       454
  90.1660       442
  90.1880       470
  90.2100       432
  90.2320       443
  90.2540       425
  90.2760       424
  90.2980       421
  90.3200       480
  90.3420       422
  90.3640       481
  90.3860       453
  90.4080       460
  90.4300       428
  90.4520       415
  90.4740       444
  90.4960       468
  90.5180       504
  90.5400       460
  90.5620       465
  90.5840       482
  90.6060       487
  90.6280       462
  90.6500       523
  90.6720       524
  90.6940       536
  90.7160       506
  90.7380       567
  90.7600       529
  90.7820       571
  90.8040       558
  90.8260       548
  90.8480       573
  90.8700       600
  90.8920       562
  90.9140       574
  90.9360       571
  90.9580       576
  90.9800       597
  91.0020       595
  91.0240       619
  91.0460       561
  91.0680       572
  91.0900       603
  91.1120       562
  91.1340       552
  91.1560       548
  91.1780       545
  91.2000       558
  91.2220       500
  91.2440       507
  91.2660       518
  91.2880       504
  91.3100       513
  91.3320       467
  91.3540       488
  91.3760       465
  91.3980       457
  91.4200       468
  91.4420       462
  91.4640       446
  91.4860       474
  91.5080       436
  91.5300       441
  91.5520       408
  91.5740       441
  91.5960       403
  91.6180       417
  91.6400       437
  91.6620       396
  91.6840       420
  91.7060       426
  91.7280       417
  91.7500       437
  91.7720       406
  91.7940       412
  91.8160       405
  91.8380       397
  91.8600       369
  91.8820       412
  91.9040       405
  91.9260       423
  91.9480       436
  91.9700       416
  91.9920       411
  92.0140       474
  92.0360       383
  92.0580       390
  92.0800       429
  92.1020       384
  92.1240       415
  92.1460       424
  92.1680       425
  92.1900       420
  92.2120       376
  92.2340       370
  92.2560       433
  92.2780       385
  92.3000       400
  92.3220       437
  92.3440       411
  92.3660       436
  92.3880       436
  92.4100       421
  92.4320       409
  92.4540       408
  92.4760       411
  92.4980       397
  92.5200       417
  92.5420       427
  92.5640       409
  92.5860       411
  92.6080       409
  92.6300       393
  92.6520       421
  92.6740       444
  92.6960       430
  92.7180       429
  92.7400       383
  92.7620       421
  92.7840       387
  92.8060       402
  92.8280       408
  92.8500       405
  92.8720       400
  92.8940       384
  92.9160       391
  92.9380       401
  92.9600       390
  92.9820       422
  93.0040       398
  93.0260       418
  93.0480       404
  93.0700       401
  93.0920       410
  93.1140       398
  93.1360       388
  93.1580       385
  93.1800       371
  93.2020       394
  93.2240       417
  93.2460       421
  93.2680       410
  93.2900       410
  93.3120       397
  93.3340       408
  93.3560       410
  93.3780       402
  93.4000       389
  93.4220       421
  93.4440       409
  93.4660       413
  93.4880       387
  93.5100       407
  93.5320       394
  93.5540       412
  93.5760       403
  93.5980       411
  93.6200       425
  93.6420       414
  93.6640       388
  93.6860       380
  93.7080       414
  93.7300       420
  93.7520       356
  93.7740       358
  93.7960       410
  93.8180       417
  93.8400       417
  93.8620       399
  93.8840       381
  93.9060       411
  93.9280       400
  93.9500       402
  93.9720       406
  93.9940       408
  94.0160       396
  94.0380       402
  94.0600       417
  94.0820       403
  94.1040       399
  94.1260       373
  94.1480       387
  94.1700       413
  94.1920       404
  94.2140       357
  94.2360       391
  94.2580       423
  94.2800       425
  94.3020       413
  94.3240       392
  94.3460       413
  94.3680       388
  94.3900       366
  94.4120       410
  94.4340       419
  94.4560       418
  94.4780       358
  94.5000       409
  94.5220       396
  94.5440       387
  94.5660       416
  94.5880       427
  94.6100       449
  94.6320       367
  94.6540       400
  94.6760       397
  94.6980       429
  94.7200       368
  94.7420       368
  94.7640       439
  94.7860       364
  94.8080       400
  94.8300       408
  94.8520       376
  94.8740       413
  94.8960       389
  94.9180       412
  94.9400       404
  94.9620       418
  94.9840       371
  95.0060       383
  95.0280       400
  95.0500       423
  95.0720       368
  95.0940       411
  95.1160       424
  95.1380       379
  95.1600       389
  95.1820       427
  95.2040       392
  95.2260       404
  95.2480       421
  95.2700       406
  95.2920       399
  95.3140       345
  95.3360       349
  95.3580       441
  95.3800       360
  95.4020       388
  95.4240       409
  95.4460       417
  95.4680       383
  95.4900       391
  95.5120       388
  95.5340       393
  95.5560       421
  95.5780       374
  95.6000       422
  95.6220       395
  95.6440       445
  95.6660       413
  95.6880       407
  95.7100       396
  95.7320       418
  95.7540       410
  95.7760       375
  95.7980       456
  95.8200       419
  95.8420       389
  95.8640       428
  95.8860       419
  95.9080       416
  95.9300       412
  95.9520       403
  95.9740       399
  95.9960       432
  96.0180       414
  96.0400       417
  96.0620       398
  96.0840       393
  96.1060       401
  96.1280       439
  96.1500       430
  96.1720       391
  96.1940       380
  96.2160       413
  96.2380       367
  96.2600       415
  96.2820       421
  96.3040       342
  96.3260       392
  96.3480       438
  96.3700       389
  96.3920       391
  96.4140       411
  96.4360       358
  96.4580       374
  96.4800       414
  96.5020       400
  96.5240       399
  96.5460       438
  96.5680       393
  96.5900       414
  96.6120       376
  96.6340       434
  96.6560       382
  96.6780       358
  96.7000       392
  96.7220       379
  96.7440       430
  96.7660       431
  96.7880       401
  96.8100       423
  96.8320       393
  96.8540       447
  96.8760       392
  96.8980       413
  96.9200       381
  96.9420       420
  96.9640       409
  96.9860       412
  97.0080       366
  97.0300       401
  97.0520       372
  97.0740       419
  97.0960       399
  97.1180       383
  97.1400       413
  97.1620       419
  97.1840       400
  97.2060       405
  97.2280       407
  97.2500       413
  97.2720       420
  97.2940       397
  97.3160       415
  97.3380       406
  97.3600       383
  97.3820       399
  97.4040       434
  97.4260       405
  97.4480       390
  97.4700       392
  97.4920       435
  97.5140       363
  97.5360       397
  97.5580       413
  97.5800       379
  97.6020       402
  97.6240       399
  97.6460       386
  97.6680       406
  97.6900       385
  97.7120       380
  97.7340       383
  97.7560       417
  97.7780       361
  97.8000       425
  97.8220       401
  97.8440       418
  97.8660       435
  97.8880       381
  97.9100       421
  97.9320       412
  97.9540       442
  97.9760       418
  97.9980       386
  98.0200       425
  98.0420       419
  98.0640       385
  98.0860       400
  98.1080       422
  98.1300       422
  98.1520       381
  98.1740       396
  98.1960       394
  98.2180       397
  98.2400       416
  98.2620       382
  98.2840       407
  98.3060       407
  98.3280       413
  98.3500       398
  98.3720       411
  98.3940       431
  98.4160       427
  98.4380       388
  98.4600       417
  98.4820       376
  98.5040       391
  98.5260       361
  98.5480       410
  98.5700       440
  98.5920       394
  98.6140       360
  98.6360       395
  98.6580       384
  98.6800       413
  98.7020       411
  98.7240       360
  98.7460       410
  98.7680       441
  98.7900       402
  98.8120       435
  98.8340       427
  98.8560       357
  98.8780       412
  98.9000       368
  98.9220       398
  98.9440       369
  98.9660       401
  98.9880       392
  99.0100       408
  99.0320       385
  99.0540       392
  99.0760       391
  99.0980       394
  99.1200       375
  99.1420       381
  99.1640       437
  99.1860       401
  99.2080       408
  99.2300       426
  99.2520       404
  99.2740       398
  99.2960       419
  99.3180       412
  99.3400       405
  99.3620       463
  99.3840       402
  99.4060       383
  99.4280       429
  99.4500       394
  99.4720       411
  99.4940       412
  99.5160       395
  99.5380       409
  99.5600       412
  99.5820       417
  99.6040       418
  99.6260       398
  99.6480       412
  99.6700       416
  99.6920       407
  99.7140       405
  99.7360       410
  99.7580       443
  99.7800       410
  99.8020       393
  99.8240       410
  99.8460       436
  99.8680       384
  99.8900       385
  99.9120       401
  99.9340       451
  99.9560       405
  99.9780       423
 100.0000       421
 100.0220       405
 100.0440       387
 100.0660       378
 100.0880       400
 100.1100       398
 100.1320       397
 100.1540       398
 100.1760       404
 100.1980       395
 100.2200       439
 100.2420       374
 100.2640       404
 100.2860       419
 100.3080       411
 100.3300       450
 100.3520       417
 100.3740       412
 100.3960       386
 100.4180       365
 100.4400       364
 100.4620       384
 100.4840       389
 100.5060       437
 100.5280       421
 100.5500       378
 100.5720       429
 100.5940       418
 100.6160       390
 100.6380       380
 100.6600       418
 100.6820       439
 100.7040       409
 100.7260       428
 100.7480       403
 100.7700       422
 100.7920       390
 100.8140       421
 100.8360       409
 100.8580       376
 100.8800       463
 100.9020       412
 100.9240       404
 100.9460       398
 100.9680       383
 100.9900       414
 101.0120       414
 101.0340       388
 101.0560       379
 101.0780       385
 101.1000       414
 101.1220       389
 101.1440       353
 101.1660       417
 101.1880       391
 101.2100       379
 101.2320       409
 101.2540       394
 101.2760       392
 101.2980       441
 101.3200       389
 101.3420       423
 101.3640       413
 101.3860       379
 101.4080       377
 101.4300       409
 101.4520       396
 101.4740       413
 101.4960       432
 101.5180       411
 101.5400       379
 101.5620       393
 101.5840       409
 101.6060       420
 101.6280       376
 101.6500       389
 101.6720       412
 101.6940       388
 101.7160       396
 101.7380       430
 101.7600       403
 101.7820       390
 101.8040       416
 101.8260       433
 101.8480       384
 101.8700       425
 101.8920       406
 101.9140       391
 101.9360       393
 101.9580       405
 101.9800       403
 102.0020       402
 102.0240       447
 102.0460       448
 102.0680       407
 102.0900       420
 102.1120       452
 102.1340       410
 102.1560       395
 102.1780       402
 102.2000       397
 102.2220       418
 102.2440       381
 102.2660       420
 102.2880       390
 102.3100       430
 102.3320       394
 102.3540       392
 102.3760       403
 102.3980       387
 102.4200       368
 102.4420       434
 102.4640       396
 102.4860       400
 102.5080       380
 102.5300       385
 102.5520       414
 102.5740       392
 102.5960       451
 102.6180       423
 102.6400       393
 102.6620       412
 102.6840       363
 102.7060       428
 102.7280       414
 102.7500       357
 102.7720       394
 102.7940       399
 102.8160       403
 102.8380       396
 102.8600       415
 102.8820       400
 102.9040       384
 102.9260       389
 102.9480       419
 102.9700       392
 102.9920       417
 103.0140       399
 103.0360       443
 103.0580       399
 103.0800       393
 103.1020       390
 103.1240       399
 103.1460       389
 103.1680       449
 103.1900       426
 103.2120       411
 103.2340       391
 103.2560       429
 103.2780       407
 103.3000       397
 103.3220       439
 103.3440       460
 103.3660       431
 103.3880       399
 103.4100       429
 103.4320       384
 103.4540       426
 103.4760       407
 103.4980       386
 103.5200       449
 103.5420       418
 103.5640       407
 103.5860       381
 103.6080       419
 103.6300       381
 103.6520       438
 103.6740       435
 103.6960       405
 103.7180       423
 103.7400       417
 103.7620       413
 103.7840       400
 103.8060       400
 103.8280       408
 103.8500       425
 103.8720       407
 103.8940       402
 103.9160       388
 103.9380       393
 103.9600       397
 103.9820       432
 104.0040       391
 104.0260       397
 104.0480       427
 104.0700       382
 104.0920       425
 104.1140       417
 104.1360       416
 104.1580       386
 104.1800       428
 104.2020       407
 104.2240       431
 104.2460       397
 104.2680       408
 104.2900       391
 104.3120       436
 104.3340       422
 104.3560       390
 104.3780       379
 104.4000       394
 104.4220       437
 104.4440       436
 104.4660       412
 104.4880       403
 104.5100       430
 104.5320       371
 104.5540       421
 104.5760       413
 104.5980       415
 104.6200       444
 104.6420       365
 104.6640       394
 104.6860       454
 104.7080       422
 104.7300       406
 104.7520       410
 104.7740       398
 104.7960       397
 104.8180       397
 104.8400       409
 104.8620       396
 104.8840       397
 104.9060       371
 104.9280       474
 104.9500       428
 104.9720       382
 104.9940       423
 105.0160       411
 105.0380       364
 105.0600       415
 105.0820       429
 105.1040       390
 105.1260       413
 105.1480       416
 105.1700       437
 105.1920       418
 105.2140       381
 105.2360       393
 105.2580       423
 105.2800       394
 105.3020       414
 105.3240       395
 105.3460       423
 105.3680       394
 105.3900       416
 105.4120       423
 105.4340       418
 105.4560       430
 105.4780       406
 105.5000       441
 105.5220       388
 105.5440       386
 105.5660       406
 105.5880       440
 105.6100       374
 105.6320       412
 105.6540       411
 105.6760       373
 105.6980       442
 105.7200       426
 105.7420       412
 105.7640       413
 105.7860       385
 105.8080       410
 105.8300       427
 105.8520       401
 105.8740       383
 105.8960       392
 105.9180       430
 105.9400       417
 105.9620       446
 105.9840       404
 106.0060       407
 106.0280       411
 106.0500       403
 106.0720       416
 106.0940       416
 106.1160       381
 106.1380       394
 106.1600       401
 106.1820       407
 106.2040       400
 106.2260       391
 106.2480       418
 106.2700       426
 106.2920       403
 106.3140       407
 106.3360       410
 106.3580       428
 106.3800       370
 106.4020       406
 106.4240       419
 106.4460       402
 106.4680       359
 106.4900       417
 106.5120       416
 106.5340       414
 106.5560       426
 106.5780       425
 106.6000       442
 106.6220       403
 106.6440       427
 106.6660       454
 106.6880       390
 106.7100       401
 106.7320       403
 106.7540       428
 106.7760       405
 106.7980       435
 106.8200       402
 106.8420       431
 106.8640       416
 106.8860       432
 106.9080       429
 106.9300       430
 106.9520       420
 106.9740       398
 106.9960       429
 107.0180       395
 107.0400       384
 107.0620       431
 107.0840       400
 107.1060       383
 107.1280       429
 107.1500       407
 107.1720       415
 107.1940       471
 107.2160       417
 107.2380       448
 107.2600       411
 107.2820       410
 107.3040       409
 107.3260       435
 107.3480       429
 107.3700       407
 107.3920       396
 107.4140       392
 107.4360       402
 107.4580       455
 107.4800       436
 107.5020       394
 107.5240       442
 107.5460       393
 107.5680       419
 107.5900       400
 107.6120       430
 107.6340       398
 107.6560       390
 107.6780       398
 107.7000       395
 107.7220       381
 107.7440       434
 107.7660       447
 107.7880       421
 107.8100       433
 107.8320       420
 107.8540       417
 107.8760       420
 107.8980       428
 107.9200       452
 107.9420       423
 107.9640       415
 107.9860       433
 108.0080       396
 108.0300       441
 108.0520       387
 108.0740       417
 108.0960       426
 108.1180       452
 108.1400       440
 108.1620       397
 108.1840       402
 108.2060       403
 108.2280       441
 108.2500       415
 108.2720       401
 108.2940       411
 108.3160       411
 108.3380       389
 108.3600       430
 108.3820       441
 108.4040       430
 108.4260       425
 108.4480       429
 108.4700       445
 108.4920       425
 108.5140       434
 108.5360       389
 108.5580       428
 108.5800       394
 108.6020       431
 108.6240       436
 108.6460       414
 108.6680       395
 108.6900       410
 108.7120       420
 108.7340       422
 108.7560       452
 108.7780       449
 108.8000       435
 108.8220       410
 108.8440       444
 108.8660       411
 108.8880       415
 108.9100       444
 108.9320       444
 108.9540       458
 108.9760       436
 108.9980       465
 109.0200       416
 109.0420       457
 109.0640       452
 109.0860       451
 109.1080       405
 109.1300       402
 109.1520       400
 109.1740       433
 109.1960       405
 109.2180       420
 109.2400       447
 109.2620       463
 109.2840       421
 109.3060       400
 109.3280       410
 109.3500       442
 109.3720       404
 109.3940       424
 109.4160       466
 109.4380       431
 109.4600       415
 109.4820       403
 109.5040       419
 109.5260       409
 109.5480       438
 109.5700       429
 109.5920       425
 109.6140       430
 109.6360       416
 109.6580       437
 109.6800       477
 109.7020       435
 109.7240       478
 109.7460       485
 109.7680       419
 109.7900       477
 109.8120       472
 109.8340       453
 109.8560       455
 109.8780       441
 109.9000       476
 109.9220       456
 109.9440       449
 109.9660       472
 109.9880       450
 110.0100       477
 110.0320       476
 110.0540       477
 110.0760       463
 110.0980       457
 110.1200       477
 110.1420       479
 110.1640       491
 110.1860       466
 110.2080       489
 110.2300       470
 110.2520       503
 110.2740       456
 110.2960       492
 110.3180       486
 110.3400       472
 110.3620       508
 110.3840       486
 110.4060       507
 110.4280       532
 110.4500       473
 110.4720       493
 110.4940       502
 110.5160       518
 110.5380       508
 110.5600       490
 110.5820       527
 110.6040       501
 110.6260       545
 110.6480       490
 110.6700       517
 110.6920       503
 110.7140       481
 110.7360       489
 110.7580       495
 110.7800       471
 110.8020       503
 110.8240       495
 110.8460       504
 110.8680       514
 110.8900       490
 110.9120       458
 110.9340       466
 110.9560       497
 110.9780       462
 111.0000       456
 111.0220       480
 111.0440       472
 111.0660       449
 111.0880       454
 111.1100       433
 111.1320       493
 111.1540       478
 111.1760       434
 111.1980       476
 111.2200       447
 111.2420       468
 111.2640       512
 111.2860       476
 111.3080       469
 111.3300       471
 111.3520       475
 111.3740       444
 111.3960       454
 111.4180       465
 111.4400       463
 111.4620       481
 111.4840       455
 111.5060       431
 111.5280       448
 111.5500       481
 111.5720       451
 111.5940       432
 111.6160       476
 111.6380       445
 111.6600       429
 111.6820       442
 111.7040       444
 111.7260       434
 111.7480       443
 111.7700       426
 111.7920       424
 111.8140       440
 111.8360       483
 111.8580       440
 111.8800       396
 111.9020       412
 111.9240       428
 111.9460       456
 111.9680       426
 111.9900       433
 112.0120       430
 112.0340       443
 112.0560       459
 112.0780       448
 112.1000       395
 112.1220       464
 112.1440       420
 112.1660       420
 112.1880       432
 112.2100       467
 112.2320       447
 112.2540       450
 112.2760       437
 112.2980       457
 112.3200       424
 112.3420       430
 112.3640       434
 112.3860       443
 112.4080       418
 112.4300       414
 112.4520       430
 112.4740       429
 112.4960       430
 112.5180       461
 112.5400       426
 112.5620       418
 112.5840       434
 112.6060       424
 112.6280       433
 112.6500       421
 112.6720       395
 112.6940       423
 112.7160       412
 112.7380       420
 112.7600       426
 112.7820       455
 112.8040       439
 112.8260       439
 112.8480       411
 112.8700       405
 112.8920       381
 112.9140       437
 112.9360       424
 112.9580       444
 112.9800       420
 113.0020       417
 113.0240       451
 113.0460       438
 113.0680       412
 113.0900       413
 113.1120       463
 113.1340       425
 113.1560       406
 113.1780       422
 113.2000       420
 113.2220       441
 113.2440       440
 113.2660       437
 113.2880       423
 113.3100       427
 113.3320       388
 113.3540       441
 113.3760       436
 113.3980       427
 113.4200       447
 113.4420       440
 113.4640       426
 113.4860       412
 113.5080       428
 113.5300       370
 113.5520       457
 113.5740       398
 113.5960       407
 113.6180       437
 113.6400       419
 113.6620       419
 113.6840       414
 113.7060       394
 113.7280       427
 113.7500       395
 113.7720       386
 113.7940       429
 113.8160       435
 113.8380       402
 113.8600       437
 113.8820       430
 113.9040       410
 113.9260       432
 113.9480       450
 113.9700       423
 113.9920       395
 114.0140       417
 114.0360       424
 114.0580       436
 114.0800       431
 114.1020       438
 114.1240       449
 114.1460       411
 114.1680       423
 114.1900       396
 114.2120       426
 114.2340       437
 114.2560       405
 114.2780       405
 114.3000       399
 114.3220       430
 114.3440       426
 114.3660       418
 114.3880       426
 114.4100       419
 114.4320       386
 114.4540       455
 114.4760       433
 114.4980       429
 114.5200       415
 114.5420       408
 114.5640       374
 114.5860       423
 114.6080       444
 114.6300       470
 114.6520       423
 114.6740       420
 114.6960       436
 114.7180       433
 114.7400       455
 114.7620       410
 114.7840       421
 114.8060       400
 114.8280       417
 114.8500       451
 114.8720       455
 114.8940       406
 114.9160       439
 114.9380       451
 114.9600       422
 114.9820       425
 115.0040       442
 115.0260       418
 115.0480       441
 115.0700       410
 115.0920       458
 115.1140       436
 115.1360       434
 115.1580       423
 115.1800       417
 115.2020       435
 115.2240       417
 115.2460       407
 115.2680       425
 115.2900       420
 115.3120       413
 115.3340       482
 115.3560       400
 115.3780       351
 115.4000       407
 115.4220       430
 115.4440       437
 115.4660       420
 115.4880       428
 115.5100       408
 115.5320       440
 115.5540       425
 115.5760       407
 115.5980       457
 115.6200       437
 115.6420       444
 115.6640       441
 115.6860       401
 115.7080       424
 115.7300       457
 115.7520       457
 115.7740       438
 115.7960       429
 115.8180       447
 115.8400       426
 115.8620       407
 115.8840       441
 115.9060       443
 115.9280       450
 115.9500       445
 115.9720       415
 115.9940       409
 116.0160       413
 116.0380       396
 116.0600       425
 116.0820       399
 116.1040       445
 116.1260       440
 116.1480       429
 116.1700       424
 116.1920       476
 116.2140       436
 116.2360       418
 116.2580       445
 116.2800       420
 116.3020       441
 116.3240       423
 116.3460       457
 116.3680       417
 116.3900       404
 116.4120       458
 116.4340       424
 116.4560       448
 116.4780       426
 116.5000       442
 116.5220       422
 116.5440       435
 116.5660       414
 116.5880       413
 116.6100       406
 116.6320       405
 116.6540       404
 116.6760       434
 116.6980       441
 116.7200       438
 116.7420       417
 116.7640       407
 116.7860       447
 116.8080       407
 116.8300       438
 116.8520       444
 116.8740       409
 116.8960       383
 116.9180       403
 116.9400       425
 116.9620       435
 116.9840       462
 117.0060       398
 117.0280       419
 117.0500       433
 117.0720       401
 117.0940       459
 117.1160       394
 117.1380       424
 117.1600       461
 117.1820       402
 117.2040       437
 117.2260       425
 117.2480       462
 117.2700       411
 117.2920       420
 117.3140       394
 117.3360       433
 117.3580       411
 117.3800       416
 117.4020       407
 117.4240       429
 117.4460       423
 117.4680       398
 117.4900       415
 117.5120       484
 117.5340       428
 117.5560       432
 117.5780       417
 117.6000       438
 117.6220       436
 117.6440       446
 117.6660       418
 117.6880       434
 117.7100       482
 117.7320       432
 117.7540       429
 117.7760       420
 117.7980       448
 117.8200       428
 117.8420       423
 117.8640       441
 117.8860       424
 117.9080       449
 117.9300       434
 117.9520       450
 117.9740       427
 117.9960       422
 118.0180       395
 118.0400       462
 118.0620       435
 118.0840       450
 118.1060       403
 118.1280       429
 118.1500       418
 118.1720       443
 118.1940       435
 118.2160       438
 118.2380       453
 118.2600       412
 118.2820       418
 118.3040       406
 118.3260       433
 118.3480       420
 118.3700       420
 118.3920       433
 118.4140       433
 118.4360       461
 118.4580       424
 118.4800       428
 118.5020       421
 118.5240       450
 118.5460       456
 118.5680       412
 118.5900       463
 118.6120       412
 118.6340       409
 118.6560       387
 118.6780       406
 118.7000       414
 118.7220       462
 118.7440       380
 118.7660       394
 118.7880       410
 118.8100       408
 118.8320       475
 118.8540       371
 118.8760       432
 118.8980       456
 118.9200       426
 118.9420       422
 118.9640       477
 118.9860       437
 119.0080       403
 119.0300       423
 119.0520       431
 119.0740       437
 119.0960       420
 119.1180       412
 119.1400       467
 119.1620       425
 119.1840       452
 119.2060       425
 119.2280       434
 119.2500       449
 119.2720       410
 119.2940       422
 119.3160       449
 119.3380       414
 119.3600       435
 119.3820       412
 119.4040       414
 119.4260       406
 119.4480       414
 119.4700       398
 119.4920       414
 119.5140       412
 119.5360       428
 119.5580       453
 119.5800       428
 119.6020       438
 119.6240       419
 119.6460       419
 119.6680       414
 119.6900       384
 119.7120       422
 119.7340       391
 119.7560       418
 119.7780       435
 119.8000       404
 119.8220       422
 119.8440       464
 119.8660       440
 119.8880       469
 119.9100       477
 119.9320       428
 119.9540       422
 119.9760       448
 119.9980       439
 120.0200       445
 120.0420       437
 120.0640       453
 120.0860       416
 120.1080       454
 120.1300       441
 120.1520       467
 120.1740       431
 120.1960       412
 120.2180       455
 120.2400       447
 120.2620       417
 120.2840       455
 120.3060       395
 120.3280       468
 120.3500       480
 120.3720       413
 120.3940       470
 120.4160       446
 120.4380       408
 120.4600       418
 120.4820       458
 120.5040       455
 120.5260       423
 120.5480       426
 120.5700       425
 120.5920       443
 120.6140       427
 120.6360       399
 120.6580       436
 120.6800       446
 120.7020       415
 120.7240       438
 120.7460       425
 120.7680       485
 120.7900       424
 120.8120       428
 120.8340       460
 120.8560       441
 120.8780       430
 120.9000       405
 120.9220       424
 120.9440       426
 120.9660       458
 120.9880       423
 121.0100       446
 121.0320       439
 121.0540       436
 121.0760       431
 121.0980       434
 121.1200       478
 121.1420       411
 121.1640       393
 121.1860       402
 121.2080       435
 121.2300       469
 121.2520       423
 121.2740       469
 121.2960       466
 121.3180       453
 121.3400       430
 121.3620       420
 121.3840       414
 121.4060       473
 121.4280       446
 121.4500       392
 121.4720       425
 121.4940       462
 121.5160       455
 121.5380       444
 121.5600       424
 121.5820       448
 121.6040       395
 121.6260       439
 121.6480       432
 121.6700       453
 121.6920       416
 121.7140       440
 121.7360       425
 121.7580       434
 121.7800       449
 121.8020       438
 121.8240       463
 121.8460       455
 121.8680       451
 121.8900       406
 121.9120       467
 121.9340       424
 121.9560       429
 121.9780       431
 122.0000       437
