; C:\Data\Froehlich\Praktikum\faber\probe1.raw(Diffrac Plus V1.01 file) converted by XCH V1.0
_FILEVERSION=2
_SAMPLE='probe1'
_SITE='II. Physikalisches Institut'
_ATTACHMENTS_CODE=0
_GONIOMETER_RADIUS=200.500000
_FIXED_DIVSLIT=2.000000
_FIXED_SAMPLESLIT=1.000000
_FIXED_DETSLIT=0.200000
_MONOCHROMATOR=0
; None
_THIN_FILM='N'
_BETA_FILTER='Y'
_FIXED_ANTISLIT=2.000000
_ANALYZER_CODE=0
; None
_DATEMEASURED='14-Nov-2015 01:56:36'
_WL_UNIT='A'
_WL1=1.540590
_WL2=1.544430
_WL3=1.392230
_WLRATIO=0.520000
_ANODE='Cu'
; (Data for Range number 1)
_DRIVE='COUPLED'
_STEPTIME=2.000000
_STEPSIZE=0.022000
_STEPMODE='C'
_START=12.000000
_THETA=6.000000
_2THETA=12.000000
_KHI=0.000000
_PHI=0.000000
_X=0.000000
_Y=0.000000
_Z=0.000000
_DIVERGENCE=0.000000
_ANTISCATTER=0.000000
_DETECTOR=1
; S.C.
_HV=1000.000000
_GAIN=80.000000
_LLD=0.550000
_ULD=1.310000
_DETECTORSLIT='unkn'
_AUX1=0.000000
_AUX2=0.000000
_AUX3=0.000000
_TIMESTARTED=14.000000
_ROTATION_SPEED=120.000000
_TEMP_RATE=-1.000000
_TEMP_DELAY=-1.000000
_KV=40
_MA=40
_RANGE_WL=1.540590
_3DPLANE=0
_2THETACOUNTS
  12.0000       301
  12.0220       273
  12.0440       262
  12.0660       320
  12.0880       309
  12.1100       311
  12.1320       295
  12.1540       291
  12.1760       329
  12.1980       322
  12.2200       303
  12.2420       273
  12.2640       292
  12.2860       308
  12.3080       304
  12.3300       305
  12.3520       312
  12.3740       292
  12.3960       314
  12.4180       276
  12.4400       297
  12.4620       302
  12.4840       305
  12.5060       314
  12.5280       265
  12.5500       275
  12.5720       314
  12.5940       274
  12.6160       284
  12.6380       312
  12.6600       301
  12.6820       271
  12.7040       310
  12.7260       307
  12.7480       295
  12.7700       281
  12.7920       289
  12.8140       273
  12.8360       282
  12.8580       295
  12.8800       273
  12.9020       283
  12.9240       277
  12.9460       280
  12.9680       302
  12.9900       280
  13.0120       290
  13.0340       291
  13.0560       275
  13.0780       302
  13.1000       295
  13.1220       268
  13.1440       288
  13.1660       285
  13.1880       274
  13.2100       280
  13.2320       288
  13.2540       285
  13.2760       299
  13.2980       278
  13.3200       301
  13.3420       267
  13.3640       277
  13.3860       267
  13.4080       304
  13.4300       261
  13.4520       289
  13.4740       280
  13.4960       277
  13.5180       322
  13.5400       292
  13.5620       256
  13.5840       290
  13.6060       291
  13.6280       266
  13.6500       282
  13.6720       273
  13.6940       281
  13.7160       279
  13.7380       265
  13.7600       283
  13.7820       293
  13.8040       260
  13.8260       287
  13.8480       271
  13.8700       308
  13.8920       287
  13.9140       288
  13.9360       312
  13.9580       289
  13.9800       318
  14.0020       273
  14.0240       295
  14.0460       299
  14.0680       270
  14.0900       278
  14.1120       295
  14.1340       304
  14.1560       283
  14.1780       282
  14.2000       292
  14.2220       295
  14.2440       266
  14.2660       298
  14.2880       259
  14.3100       285
  14.3320       288
  14.3540       301
  14.3760       277
  14.3980       296
  14.4200       303
  14.4420       266
  14.4640       292
  14.4860       256
  14.5080       272
  14.5300       271
  14.5520       254
  14.5740       275
  14.5960       296
  14.6180       275
  14.6400       300
  14.6620       293
  14.6840       272
  14.7060       264
  14.7280       279
  14.7500       255
  14.7720       277
  14.7940       247
  14.8160       251
  14.8380       278
  14.8600       262
  14.8820       269
  14.9040       268
  14.9260       294
  14.9480       292
  14.9700       294
  14.9920       256
  15.0140       256
  15.0360       277
  15.0580       283
  15.0800       257
  15.1020       289
  15.1240       284
  15.1460       273
  15.1680       301
  15.1900       300
  15.2120       289
  15.2340       295
  15.2560       265
  15.2780       281
  15.3000       278
  15.3220       291
  15.3440       293
  15.3660       257
  15.3880       306
  15.4100       284
  15.4320       289
  15.4540       294
  15.4760       295
  15.4980       261
  15.5200       249
  15.5420       286
  15.5640       288
  15.5860       314
  15.6080       268
  15.6300       287
  15.6520       276
  15.6740       261
  15.6960       283
  15.7180       263
  15.7400       273
  15.7620       292
  15.7840       303
  15.8060       295
  15.8280       311
  15.8500       273
  15.8720       270
  15.8940       274
  15.9160       281
  15.9380       251
  15.9600       287
  15.9820       295
  16.0040       325
  16.0260       288
  16.0480       295
  16.0700       291
  16.0920       297
  16.1140       302
  16.1360       296
  16.1580       343
  16.1800       277
  16.2020       288
  16.2240       318
  16.2460       270
  16.2680       307
  16.2900       289
  16.3120       316
  16.3340       293
  16.3560       291
  16.3780       282
  16.4000       315
  16.4220       300
  16.4440       306
  16.4660       266
  16.4880       254
  16.5100       285
  16.5320       302
  16.5540       302
  16.5760       296
  16.5980       272
  16.6200       272
  16.6420       294
  16.6640       325
  16.6860       318
  16.7080       295
  16.7300       297
  16.7520       295
  16.7740       313
  16.7960       294
  16.8180       306
  16.8400       274
  16.8620       307
  16.8840       283
  16.9060       272
  16.9280       305
  16.9500       301
  16.9720       292
  16.9940       323
  17.0160       335
  17.0380       311
  17.0600       299
  17.0820       325
  17.1040       292
  17.1260       293
  17.1480       324
  17.1700       298
  17.1920       312
  17.2140       290
  17.2360       299
  17.2580       290
  17.2800       299
  17.3020       291
  17.3240       319
  17.3460       304
  17.3680       324
  17.3900       289
  17.4120       284
  17.4340       324
  17.4560       278
  17.4780       291
  17.5000       301
  17.5220       268
  17.5440       290
  17.5660       309
  17.5880       309
  17.6100       292
  17.6320       324
  17.6540       269
  17.6760       316
  17.6980       281
  17.7200       308
  17.7420       317
  17.7640       300
  17.7860       311
  17.8080       313
  17.8300       354
  17.8520       285
  17.8740       328
  17.8960       290
  17.9180       296
  17.9400       303
  17.9620       279
  17.9840       299
  18.0060       300
  18.0280       341
  18.0500       324
  18.0720       320
  18.0940       289
  18.1160       302
  18.1380       323
  18.1600       321
  18.1820       310
  18.2040       296
  18.2260       319
  18.2480       334
  18.2700       307
  18.2920       312
  18.3140       299
  18.3360       325
  18.3580       328
  18.3800       296
  18.4020       330
  18.4240       311
  18.4460       300
  18.4680       314
  18.4900       298
  18.5120       320
  18.5340       317
  18.5560       321
  18.5780       349
  18.6000       336
  18.6220       309
  18.6440       333
  18.6660       353
  18.6880       359
  18.7100       307
  18.7320       329
  18.7540       308
  18.7760       314
  18.7980       343
  18.8200       332
  18.8420       347
  18.8640       333
  18.8860       314
  18.9080       335
  18.9300       303
  18.9520       345
  18.9740       299
  18.9960       345
  19.0180       320
  19.0400       345
  19.0620       329
  19.0840       344
  19.1060       349
  19.1280       368
  19.1500       306
  19.1720       350
  19.1940       351
  19.2160       360
  19.2380       318
  19.2600       312
  19.2820       335
  19.3040       342
  19.3260       337
  19.3480       334
  19.3700       345
  19.3920       353
  19.4140       364
  19.4360       318
  19.4580       325
  19.4800       363
  19.5020       359
  19.5240       355
  19.5460       353
  19.5680       307
  19.5900       338
  19.6120       316
  19.6340       307
  19.6560       325
  19.6780       358
  19.7000       364
  19.7220       340
  19.7440       334
  19.7660       342
  19.7880       336
  19.8100       347
  19.8320       322
  19.8540       362
  19.8760       366
  19.8980       355
  19.9200       344
  19.9420       375
  19.9640       320
  19.9860       353
  20.0080       356
  20.0300       368
  20.0520       294
  20.0740       354
  20.0960       351
  20.1180       349
  20.1400       345
  20.1620       351
  20.1840       367
  20.2060       336
  20.2280       393
  20.2500       332
  20.2720       334
  20.2940       397
  20.3160       349
  20.3380       370
  20.3600       346
  20.3820       351
  20.4040       345
  20.4260       374
  20.4480       352
  20.4700       355
  20.4920       374
  20.5140       347
  20.5360       363
  20.5580       370
  20.5800       372
  20.6020       363
  20.6240       369
  20.6460       352
  20.6680       343
  20.6900       375
  20.7120       390
  20.7340       356
  20.7560       372
  20.7780       373
  20.8000       388
  20.8220       357
  20.8440       342
  20.8660       326
  20.8880       376
  20.9100       408
  20.9320       343
  20.9540       366
  20.9760       382
  20.9980       372
  21.0200       352
  21.0420       367
  21.0640       390
  21.0860       360
  21.1080       381
  21.1300       393
  21.1520       372
  21.1740       366
  21.1960       372
  21.2180       377
  21.2400       360
  21.2620       376
  21.2840       371
  21.3060       391
  21.3280       365
  21.3500       377
  21.3720       403
  21.3940       388
  21.4160       389
  21.4380       367
  21.4600       375
  21.4820       364
  21.5040       351
  21.5260       399
  21.5480       387
  21.5700       385
  21.5920       395
  21.6140       388
  21.6360       367
  21.6580       400
  21.6800       392
  21.7020       407
  21.7240       384
  21.7460       394
  21.7680       397
  21.7900       403
  21.8120       366
  21.8340       402
  21.8560       397
  21.8780       395
  21.9000       384
  21.9220       383
  21.9440       388
  21.9660       375
  21.9880       388
  22.0100       359
  22.0320       410
  22.0540       404
  22.0760       390
  22.0980       384
  22.1200       428
  22.1420       371
  22.1640       416
  22.1860       396
  22.2080       374
  22.2300       422
  22.2520       369
  22.2740       412
  22.2960       398
  22.3180       408
  22.3400       407
  22.3620       358
  22.3840       355
  22.4060       399
  22.4280       381
  22.4500       388
  22.4720       407
  22.4940       384
  22.5160       369
  22.5380       399
  22.5600       397
  22.5820       405
  22.6040       390
  22.6260       410
  22.6480       429
  22.6700       385
  22.6920       402
  22.7140       429
  22.7360       426
  22.7580       408
  22.7800       427
  22.8020       390
  22.8240       394
  22.8460       392
  22.8680       411
  22.8900       380
  22.9120       379
  22.9340       378
  22.9560       411
  22.9780       432
  23.0000       425
  23.0220       414
  23.0440       385
  23.0660       401
  23.0880       395
  23.1100       375
  23.1320       399
  23.1540       440
  23.1760       395
  23.1980       384
  23.2200       385
  23.2420       400
  23.2640       450
  23.2860       414
  23.3080       378
  23.3300       389
  23.3520       395
  23.3740       375
  23.3960       372
  23.4180       403
  23.4400       399
  23.4620       422
  23.4840       419
  23.5060       404
  23.5280       437
  23.5500       387
  23.5720       408
  23.5940       429
  23.6160       424
  23.6380       418
  23.6600       405
  23.6820       406
  23.7040       425
  23.7260       446
  23.7480       485
  23.7700       433
  23.7920       401
  23.8140       439
  23.8360       428
  23.8580       473
  23.8800       502
  23.9020       480
  23.9240       453
  23.9460       501
  23.9680       523
  23.9900       508
  24.0120       521
  24.0340       480
  24.0560       548
  24.0780       527
  24.1000       520
  24.1220       480
  24.1440       458
  24.1660       509
  24.1880       462
  24.2100       450
  24.2320       477
  24.2540       430
  24.2760       438
  24.2980       416
  24.3200       446
  24.3420       454
  24.3640       427
  24.3860       414
  24.4080       434
  24.4300       406
  24.4520       392
  24.4740       428
  24.4960       411
  24.5180       386
  24.5400       394
  24.5620       415
  24.5840       393
  24.6060       398
  24.6280       430
  24.6500       403
  24.6720       425
  24.6940       444
  24.7160       399
  24.7380       431
  24.7600       371
  24.7820       400
  24.8040       423
  24.8260       392
  24.8480       438
  24.8700       421
  24.8920       401
  24.9140       392
  24.9360       384
  24.9580       399
  24.9800       392
  25.0020       413
  25.0240       359
  25.0460       410
  25.0680       387
  25.0900       395
  25.1120       388
  25.1340       357
  25.1560       395
  25.1780       384
  25.2000       389
  25.2220       361
  25.2440       373
  25.2660       438
  25.2880       405
  25.3100       394
  25.3320       393
  25.3540       370
  25.3760       408
  25.3980       376
  25.4200       396
  25.4420       392
  25.4640       399
  25.4860       377
  25.5080       406
  25.5300       416
  25.5520       408
  25.5740       428
  25.5960       400
  25.6180       343
  25.6400       399
  25.6620       382
  25.6840       354
  25.7060       360
  25.7280       380
  25.7500       378
  25.7720       389
  25.7940       376
  25.8160       348
  25.8380       400
  25.8600       381
  25.8820       366
  25.9040       393
  25.9260       399
  25.9480       362
  25.9700       369
  25.9920       362
  26.0140       430
  26.0360       380
  26.0580       385
  26.0800       344
  26.1020       362
  26.1240       363
  26.1460       350
  26.1680       422
  26.1900       374
  26.2120       360
  26.2340       378
  26.2560       371
  26.2780       363
  26.3000       364
  26.3220       371
  26.3440       376
  26.3660       384
  26.3880       384
  26.4100       346
  26.4320       367
  26.4540       366
  26.4760       391
  26.4980       364
  26.5200       401
  26.5420       379
  26.5640       356
  26.5860       363
  26.6080       355
  26.6300       376
  26.6520       385
  26.6740       387
  26.6960       389
  26.7180       360
  26.7400       366
  26.7620       412
  26.7840       360
  26.8060       415
  26.8280       344
  26.8500       391
  26.8720       401
  26.8940       402
  26.9160       383
  26.9380       371
  26.9600       381
  26.9820       367
  27.0040       350
  27.0260       363
  27.0480       365
  27.0700       381
  27.0920       334
  27.1140       345
  27.1360       333
  27.1580       399
  27.1800       341
  27.2020       368
  27.2240       372
  27.2460       368
  27.2680       362
  27.2900       398
  27.3120       367
  27.3340       375
  27.3560       369
  27.3780       343
  27.4000       361
  27.4220       364
  27.4440       377
  27.4660       321
  27.4880       366
  27.5100       352
  27.5320       366
  27.5540       386
  27.5760       360
  27.5980       367
  27.6200       366
  27.6420       345
  27.6640       401
  27.6860       350
  27.7080       367
  27.7300       387
  27.7520       390
  27.7740       391
  27.7960       364
  27.8180       357
  27.8400       355
  27.8620       347
  27.8840       374
  27.9060       354
  27.9280       347
  27.9500       357
  27.9720       346
  27.9940       342
  28.0160       374
  28.0380       349
  28.0600       331
  28.0820       344
  28.1040       342
  28.1260       375
  28.1480       390
  28.1700       343
  28.1920       383
  28.2140       357
  28.2360       359
  28.2580       359
  28.2800       369
  28.3020       342
  28.3240       354
  28.3460       361
  28.3680       358
  28.3900       351
  28.4120       355
  28.4340       371
  28.4560       350
  28.4780       329
  28.5000       382
  28.5220       326
  28.5440       346
  28.5660       389
  28.5880       365
  28.6100       313
  28.6320       395
  28.6540       361
  28.6760       322
  28.6980       338
  28.7200       353
  28.7420       321
  28.7640       344
  28.7860       346
  28.8080       344
  28.8300       342
  28.8520       344
  28.8740       323
  28.8960       356
  28.9180       348
  28.9400       319
  28.9620       330
  28.9840       374
  29.0060       349
  29.0280       312
  29.0500       333
  29.0720       360
  29.0940       305
  29.1160       325
  29.1380       337
  29.1600       324
  29.1820       364
  29.2040       345
  29.2260       326
  29.2480       324
  29.2700       351
  29.2920       340
  29.3140       348
  29.3360       345
  29.3580       349
  29.3800       369
  29.4020       389
  29.4240       334
  29.4460       390
  29.4680       321
  29.4900       352
  29.5120       350
  29.5340       352
  29.5560       347
  29.5780       329
  29.6000       334
  29.6220       346
  29.6440       327
  29.6660       327
  29.6880       318
  29.7100       344
  29.7320       330
  29.7540       352
  29.7760       346
  29.7980       329
  29.8200       350
  29.8420       383
  29.8640       340
  29.8860       318
  29.9080       349
  29.9300       345
  29.9520       336
  29.9740       306
  29.9960       353
  30.0180       330
  30.0400       350
  30.0620       337
  30.0840       330
  30.1060       361
  30.1280       333
  30.1500       301
  30.1720       339
  30.1940       334
  30.2160       338
  30.2380       341
  30.2600       362
  30.2820       348
  30.3040       354
  30.3260       312
  30.3480       321
  30.3700       318
  30.3920       309
  30.4140       328
  30.4360       326
  30.4580       305
  30.4800       321
  30.5020       334
  30.5240       334
  30.5460       361
  30.5680       349
  30.5900       307
  30.6120       328
  30.6340       361
  30.6560       313
  30.6780       307
  30.7000       361
  30.7220       307
  30.7440       355
  30.7660       321
  30.7880       366
  30.8100       315
  30.8320       336
  30.8540       324
  30.8760       323
  30.8980       332
  30.9200       327
  30.9420       333
  30.9640       353
  30.9860       353
  31.0080       315
  31.0300       318
  31.0520       309
  31.0740       313
  31.0960       357
  31.1180       322
  31.1400       328
  31.1620       323
  31.1840       340
  31.2060       321
  31.2280       280
  31.2500       337
  31.2720       325
  31.2940       304
  31.3160       322
  31.3380       326
  31.3600       351
  31.3820       307
  31.4040       307
  31.4260       333
  31.4480       332
  31.4700       324
  31.4920       323
  31.5140       348
  31.5360       336
  31.5580       328
  31.5800       319
  31.6020       342
  31.6240       315
  31.6460       311
  31.6680       301
  31.6900       322
  31.7120       332
  31.7340       323
  31.7560       308
  31.7780       290
  31.8000       339
  31.8220       281
  31.8440       290
  31.8660       293
  31.8880       323
  31.9100       338
  31.9320       322
  31.9540       317
  31.9760       309
  31.9980       329
  32.0200       279
  32.0420       300
  32.0640       320
  32.0860       324
  32.1080       295
  32.1300       294
  32.1520       318
  32.1740       294
  32.1960       302
  32.2180       330
  32.2400       318
  32.2620       307
  32.2840       292
  32.3060       310
  32.3280       310
  32.3500       312
  32.3720       327
  32.3940       307
  32.4160       325
  32.4380       291
  32.4600       312
  32.4820       279
  32.5040       318
  32.5260       319
  32.5480       306
  32.5700       296
  32.5920       305
  32.6140       314
  32.6360       309
  32.6580       312
  32.6800       311
  32.7020       289
  32.7240       320
  32.7460       324
  32.7680       343
  32.7900       346
  32.8120       302
  32.8340       293
  32.8560       331
  32.8780       314
  32.9000       293
  32.9220       322
  32.9440       301
  32.9660       310
  32.9880       299
  33.0100       313
  33.0320       323
  33.0540       311
  33.0760       316
  33.0980       321
  33.1200       310
  33.1420       303
  33.1640       321
  33.1860       287
  33.2080       286
  33.2300       286
  33.2520       304
  33.2740       301
  33.2960       314
  33.3180       320
  33.3400       295
  33.3620       299
  33.3840       279
  33.4060       293
  33.4280       305
  33.4500       309
  33.4720       293
  33.4940       327
  33.5160       323
  33.5380       296
  33.5600       308
  33.5820       345
  33.6040       322
  33.6260       329
  33.6480       325
  33.6700       338
  33.6920       317
  33.7140       315
  33.7360       360
  33.7580       355
  33.7800       346
  33.8020       300
  33.8240       353
  33.8460       348
  33.8680       363
  33.8900       359
  33.9120       385
  33.9340       358
  33.9560       406
  33.9780       358
  34.0000       376
  34.0220       407
  34.0440       462
  34.0660       403
  34.0880       437
  34.1100       413
  34.1320       423
  34.1540       409
  34.1760       415
  34.1980       381
  34.2200       401
  34.2420       382
  34.2640       381
  34.2860       393
  34.3080       349
  34.3300       347
  34.3520       333
  34.3740       368
  34.3960       340
  34.4180       332
  34.4400       350
  34.4620       317
  34.4840       332
  34.5060       305
  34.5280       297
  34.5500       325
  34.5720       323
  34.5940       307
  34.6160       307
  34.6380       259
  34.6600       291
  34.6820       293
  34.7040       290
  34.7260       285
  34.7480       294
  34.7700       290
  34.7920       275
  34.8140       298
  34.8360       305
  34.8580       301
  34.8800       313
  34.9020       268
  34.9240       279
  34.9460       263
  34.9680       264
  34.9900       278
  35.0120       274
  35.0340       251
  35.0560       272
  35.0780       272
  35.1000       259
  35.1220       285
  35.1440       275
  35.1660       259
  35.1880       270
  35.2100       298
  35.2320       236
  35.2540       255
  35.2760       259
  35.2980       294
  35.3200       271
  35.3420       300
  35.3640       249
  35.3860       267
  35.4080       295
  35.4300       301
  35.4520       270
  35.4740       259
  35.4960       298
  35.5180       267
  35.5400       279
  35.5620       268
  35.5840       251
  35.6060       255
  35.6280       270
  35.6500       248
  35.6720       272
  35.6940       255
  35.7160       275
  35.7380       291
  35.7600       277
  35.7820       240
  35.8040       261
  35.8260       265
  35.8480       240
  35.8700       239
  35.8920       267
  35.9140       278
  35.9360       243
  35.9580       282
  35.9800       227
  36.0020       249
  36.0240       254
  36.0460       247
  36.0680       261
  36.0900       264
  36.1120       225
  36.1340       272
  36.1560       295
  36.1780       227
  36.2000       238
  36.2220       255
  36.2440       267
  36.2660       272
  36.2880       249
  36.3100       259
  36.3320       290
  36.3540       243
  36.3760       263
  36.3980       247
  36.4200       270
  36.4420       246
  36.4640       275
  36.4860       255
  36.5080       238
  36.5300       253
  36.5520       242
  36.5740       254
  36.5960       245
  36.6180       242
  36.6400       242
  36.6620       228
  36.6840       260
  36.7060       262
  36.7280       239
  36.7500       245
  36.7720       261
  36.7940       226
  36.8160       244
  36.8380       234
  36.8600       246
  36.8820       275
  36.9040       268
  36.9260       230
  36.9480       234
  36.9700       254
  36.9920       281
  37.0140       198
  37.0360       270
  37.0580       243
  37.0800       246
  37.1020       245
  37.1240       256
  37.1460       249
  37.1680       255
  37.1900       237
  37.2120       239
  37.2340       271
  37.2560       269
  37.2780       269
  37.3000       263
  37.3220       232
  37.3440       241
  37.3660       257
  37.3880       235
  37.4100       216
  37.4320       267
  37.4540       213
  37.4760       241
  37.4980       234
  37.5200       236
  37.5420       247
  37.5640       234
  37.5860       221
  37.6080       234
  37.6300       261
  37.6520       248
  37.6740       255
  37.6960       248
  37.7180       253
  37.7400       244
  37.7620       295
  37.7840       244
  37.8060       278
  37.8280       249
  37.8500       271
  37.8720       255
  37.8940       236
  37.9160       276
  37.9380       243
  37.9600       242
  37.9820       221
  38.0040       236
  38.0260       270
  38.0480       262
  38.0700       227
  38.0920       268
  38.1140       254
  38.1360       221
  38.1580       237
  38.1800       258
  38.2020       246
  38.2240       264
  38.2460       225
  38.2680       237
  38.2900       263
  38.3120       255
  38.3340       277
  38.3560       262
  38.3780       276
  38.4000       274
  38.4220       293
  38.4440       306
  38.4660       296
  38.4880       291
  38.5100       292
  38.5320       293
  38.5540       274
  38.5760       232
  38.5980       261
  38.6200       285
  38.6420       271
  38.6640       252
  38.6860       262
  38.7080       241
  38.7300       265
  38.7520       253
  38.7740       271
  38.7960       232
  38.8180       253
  38.8400       246
  38.8620       233
  38.8840       228
  38.9060       229
  38.9280       244
  38.9500       237
  38.9720       222
  38.9940       234
  39.0160       230
  39.0380       235
  39.0600       246
  39.0820       241
  39.1040       236
  39.1260       247
  39.1480       241
  39.1700       237
  39.1920       239
  39.2140       236
  39.2360       230
  39.2580       234
  39.2800       260
  39.3020       239
  39.3240       213
  39.3460       246
  39.3680       235
  39.3900       204
  39.4120       216
  39.4340       215
  39.4560       231
  39.4780       223
  39.5000       242
  39.5220       239
  39.5440       230
  39.5660       253
  39.5880       227
  39.6100       236
  39.6320       250
  39.6540       241
  39.6760       240
  39.6980       227
  39.7200       226
  39.7420       240
  39.7640       246
  39.7860       234
  39.8080       219
  39.8300       242
  39.8520       236
  39.8740       242
  39.8960       226
  39.9180       224
  39.9400       229
  39.9620       201
  39.9840       246
  40.0060       245
  40.0280       240
  40.0500       243
  40.0720       230
  40.0940       220
  40.1160       245
  40.1380       245
  40.1600       241
  40.1820       264
  40.2040       226
  40.2260       218
  40.2480       229
  40.2700       244
  40.2920       259
  40.3140       243
  40.3360       228
  40.3580       218
  40.3800       205
  40.4020       228
  40.4240       219
  40.4460       234
  40.4680       248
  40.4900       227
  40.5120       222
  40.5340       236
  40.5560       251
  40.5780       264
  40.6000       220
  40.6220       226
  40.6440       236
  40.6660       244
  40.6880       251
  40.7100       262
  40.7320       239
  40.7540       233
  40.7760       249
  40.7980       234
  40.8200       236
  40.8420       242
  40.8640       264
  40.8860       239
  40.9080       218
  40.9300       242
  40.9520       222
  40.9740       236
  40.9960       237
  41.0180       233
  41.0400       270
  41.0620       260
  41.0840       264
  41.1060       260
  41.1280       236
  41.1500       268
  41.1720       234
  41.1940       273
  41.2160       273
  41.2380       299
  41.2600       267
  41.2820       251
  41.3040       287
  41.3260       288
  41.3480       281
  41.3700       285
  41.3920       278
  41.4140       317
  41.4360       337
  41.4580       307
  41.4800       324
  41.5020       333
  41.5240       325
  41.5460       349
  41.5680       385
  41.5900       389
  41.6120       431
  41.6340       457
  41.6560       495
  41.6780       472
  41.7000       530
  41.7220       588
  41.7440       623
  41.7660       698
  41.7880       789
  41.8100       847
  41.8320       957
  41.8540      1067
  41.8760      1245
  41.8980      1391
  41.9200      1472
  41.9420      1659
  41.9640      1765
  41.9860      1754
  42.0080      1753
  42.0300      1817
  42.0520      1524
  42.0740      1522
  42.0960      1313
  42.1180      1200
  42.1400      1020
  42.1620       911
  42.1840       772
  42.2060       706
  42.2280       569
  42.2500       498
  42.2720       467
  42.2940       434
  42.3160       414
  42.3380       403
  42.3600       350
  42.3820       391
  42.4040       351
  42.4260       301
  42.4480       304
  42.4700       290
  42.4920       270
  42.5140       284
  42.5360       286
  42.5580       294
  42.5800       309
  42.6020       237
  42.6240       270
  42.6460       275
  42.6680       236
  42.6900       259
  42.7120       246
  42.7340       260
  42.7560       273
  42.7780       246
  42.8000       254
  42.8220       240
  42.8440       231
  42.8660       261
  42.8880       274
  42.9100       230
  42.9320       272
  42.9540       218
  42.9760       234
  42.9980       240
  43.0200       252
  43.0420       274
  43.0640       232
  43.0860       284
  43.1080       234
  43.1300       227
  43.1520       253
  43.1740       246
  43.1960       269
  43.2180       218
  43.2400       245
  43.2620       234
  43.2840       233
  43.3060       246
  43.3280       240
  43.3500       217
  43.3720       209
  43.3940       258
  43.4160       250
  43.4380       253
  43.4600       270
  43.4820       244
  43.5040       261
  43.5260       255
  43.5480       216
  43.5700       253
  43.5920       252
  43.6140       290
  43.6360       265
  43.6580       272
  43.6800       256
  43.7020       269
  43.7240       211
  43.7460       250
  43.7680       214
  43.7900       268
  43.8120       223
  43.8340       256
  43.8560       241
  43.8780       238
  43.9000       271
  43.9220       255
  43.9440       234
  43.9660       250
  43.9880       244
  44.0100       241
  44.0320       243
  44.0540       249
  44.0760       210
  44.0980       235
  44.1200       250
  44.1420       254
  44.1640       215
  44.1860       256
  44.2080       224
  44.2300       229
  44.2520       227
  44.2740       249
  44.2960       228
  44.3180       249
  44.3400       226
  44.3620       218
  44.3840       239
  44.4060       258
  44.4280       241
  44.4500       227
  44.4720       247
  44.4940       254
  44.5160       268
  44.5380       237
  44.5600       233
  44.5820       246
  44.6040       269
  44.6260       243
  44.6480       251
  44.6700       240
  44.6920       220
  44.7140       263
  44.7360       265
  44.7580       234
  44.7800       259
  44.8020       257
  44.8240       257
  44.8460       239
  44.8680       236
  44.8900       213
  44.9120       239
  44.9340       225
  44.9560       238
  44.9780       236
  45.0000       239
  45.0220       238
  45.0440       221
  45.0660       215
  45.0880       237
  45.1100       237
  45.1320       255
  45.1540       224
  45.1760       240
  45.1980       244
  45.2200       224
  45.2420       215
  45.2640       223
  45.2860       229
  45.3080       233
  45.3300       214
  45.3520       233
  45.3740       213
  45.3960       216
  45.4180       201
  45.4400       232
  45.4620       199
  45.4840       250
  45.5060       230
  45.5280       249
  45.5500       232
  45.5720       243
  45.5940       218
  45.6160       228
  45.6380       225
  45.6600       236
  45.6820       233
  45.7040       241
  45.7260       210
  45.7480       240
  45.7700       210
  45.7920       233
  45.8140       222
  45.8360       229
  45.8580       226
  45.8800       259
  45.9020       234
  45.9240       250
  45.9460       232
  45.9680       226
  45.9900       250
  46.0120       229
  46.0340       217
  46.0560       259
  46.0780       230
  46.1000       222
  46.1220       239
  46.1440       202
  46.1660       221
  46.1880       240
  46.2100       218
  46.2320       227
  46.2540       225
  46.2760       244
  46.2980       242
  46.3200       238
  46.3420       218
  46.3640       256
  46.3860       243
  46.4080       250
  46.4300       265
  46.4520       223
  46.4740       214
  46.4960       248
  46.5180       236
  46.5400       226
  46.5620       217
  46.5840       215
  46.6060       205
  46.6280       240
  46.6500       200
  46.6720       247
  46.6940       213
  46.7160       251
  46.7380       238
  46.7600       229
  46.7820       239
  46.8040       227
  46.8260       247
  46.8480       230
  46.8700       221
  46.8920       181
  46.9140       223
  46.9360       241
  46.9580       234
  46.9800       211
  47.0020       248
  47.0240       255
  47.0460       236
  47.0680       245
  47.0900       247
  47.1120       211
  47.1340       235
  47.1560       219
  47.1780       221
  47.2000       256
  47.2220       231
  47.2440       222
  47.2660       239
  47.2880       244
  47.3100       236
  47.3320       216
  47.3540       228
  47.3760       261
  47.3980       237
  47.4200       251
  47.4420       246
  47.4640       246
  47.4860       230
  47.5080       229
  47.5300       239
  47.5520       239
  47.5740       233
  47.5960       218
  47.6180       254
  47.6400       265
  47.6620       233
  47.6840       263
  47.7060       240
  47.7280       226
  47.7500       271
  47.7720       262
  47.7940       274
  47.8160       259
  47.8380       240
  47.8600       253
  47.8820       282
  47.9040       277
  47.9260       270
  47.9480       286
  47.9700       281
  47.9920       266
  48.0140       271
  48.0360       279
  48.0580       259
  48.0800       293
  48.1020       255
  48.1240       295
  48.1460       322
  48.1680       364
  48.1900       286
  48.2120       333
  48.2340       345
  48.2560       331
  48.2780       385
  48.3000       356
  48.3220       360
  48.3440       411
  48.3660       415
  48.3880       432
  48.4100       433
  48.4320       481
  48.4540       462
  48.4760       506
  48.4980       548
  48.5200       503
  48.5420       633
  48.5640       580
  48.5860       627
  48.6080       696
  48.6300       719
  48.6520       753
  48.6740       773
  48.6960       816
  48.7180       793
  48.7400       804
  48.7620       880
  48.7840       833
  48.8060       827
  48.8280       882
  48.8500       809
  48.8720       776
  48.8940       717
  48.9160       725
  48.9380       596
  48.9600       599
  48.9820       561
  49.0040       502
  49.0260       479
  49.0480       463
  49.0700       421
  49.0920       379
  49.1140       394
  49.1360       378
  49.1580       328
  49.1800       311
  49.2020       323
  49.2240       288
  49.2460       311
  49.2680       308
  49.2900       280
  49.3120       268
  49.3340       286
  49.3560       276
  49.3780       264
  49.4000       284
  49.4220       275
  49.4440       247
  49.4660       254
  49.4880       269
  49.5100       254
  49.5320       281
  49.5540       244
  49.5760       242
  49.5980       244
  49.6200       240
  49.6420       238
  49.6640       236
  49.6860       231
  49.7080       223
  49.7300       230
  49.7520       217
  49.7740       234
  49.7960       243
  49.8180       217
  49.8400       226
  49.8620       235
  49.8840       208
  49.9060       239
  49.9280       246
  49.9500       218
  49.9720       250
  49.9940       223
  50.0160       189
  50.0380       222
  50.0600       268
  50.0820       220
  50.1040       223
  50.1260       238
  50.1480       238
  50.1700       214
  50.1920       212
  50.2140       227
  50.2360       236
  50.2580       232
  50.2800       207
  50.3020       245
  50.3240       252
  50.3460       223
  50.3680       228
  50.3900       242
  50.4120       237
  50.4340       211
  50.4560       222
  50.4780       230
  50.5000       228
  50.5220       232
  50.5440       207
  50.5660       229
  50.5880       217
  50.6100       199
  50.6320       218
  50.6540       247
  50.6760       207
  50.6980       214
  50.7200       215
  50.7420       236
  50.7640       244
  50.7860       237
  50.8080       245
  50.8300       219
  50.8520       247
  50.8740       218
  50.8960       212
  50.9180       206
  50.9400       234
  50.9620       233
  50.9840       205
  51.0060       218
  51.0280       222
  51.0500       233
  51.0720       232
  51.0940       229
  51.1160       223
  51.1380       236
  51.1600       200
  51.1820       227
  51.2040       215
  51.2260       239
  51.2480       217
  51.2700       217
  51.2920       218
  51.3140       246
  51.3360       223
  51.3580       217
  51.3800       203
  51.4020       207
  51.4240       238
  51.4460       218
  51.4680       217
  51.4900       231
  51.5120       211
  51.5340       236
  51.5560       239
  51.5780       209
  51.6000       208
  51.6220       221
  51.6440       223
  51.6660       236
  51.6880       212
  51.7100       222
  51.7320       231
  51.7540       203
  51.7760       223
  51.7980       233
  51.8200       199
  51.8420       229
  51.8640       203
  51.8860       198
  51.9080       222
  51.9300       206
  51.9520       212
  51.9740       229
  51.9960       232
  52.0180       183
  52.0400       229
  52.0620       232
  52.0840       203
  52.1060       226
  52.1280       226
  52.1500       219
  52.1720       218
  52.1940       192
  52.2160       214
  52.2380       230
  52.2600       217
  52.2820       238
  52.3040       222
  52.3260       229
  52.3480       214
  52.3700       241
  52.3920       219
  52.4140       239
  52.4360       254
  52.4580       204
  52.4800       205
  52.5020       196
  52.5240       210
  52.5460       228
  52.5680       225
  52.5900       218
  52.6120       199
  52.6340       265
  52.6560       222
  52.6780       241
  52.7000       224
  52.7220       224
  52.7440       233
  52.7660       214
  52.7880       202
  52.8100       210
  52.8320       227
  52.8540       192
  52.8760       195
  52.8980       223
  52.9200       225
  52.9420       212
  52.9640       225
  52.9860       225
  53.0080       219
  53.0300       228
  53.0520       213
  53.0740       224
  53.0960       241
  53.1180       220
  53.1400       237
  53.1620       222
  53.1840       227
  53.2060       242
  53.2280       219
  53.2500       231
  53.2720       222
  53.2940       245
  53.3160       209
  53.3380       234
  53.3600       268
  53.3820       235
  53.4040       224
  53.4260       215
  53.4480       238
  53.4700       242
  53.4920       234
  53.5140       232
  53.5360       216
  53.5580       235
  53.5800       217
  53.6020       247
  53.6240       227
  53.6460       218
  53.6680       214
  53.6900       254
  53.7120       230
  53.7340       219
  53.7560       205
  53.7780       231
  53.8000       243
  53.8220       220
  53.8440       218
  53.8660       232
  53.8880       214
  53.9100       210
  53.9320       234
  53.9540       247
  53.9760       237
  53.9980       228
  54.0200       212
  54.0420       226
  54.0640       253
  54.0860       262
  54.1080       216
  54.1300       243
  54.1520       286
  54.1740       225
  54.1960       214
  54.2180       228
  54.2400       216
  54.2620       240
  54.2840       254
  54.3060       255
  54.3280       222
  54.3500       240
  54.3720       246
  54.3940       251
  54.4160       246
  54.4380       257
  54.4600       237
  54.4820       261
  54.5040       256
  54.5260       260
  54.5480       248
  54.5700       228
  54.5920       227
  54.6140       249
  54.6360       246
  54.6580       262
  54.6800       253
  54.7020       239
  54.7240       292
  54.7460       287
  54.7680       254
  54.7900       262
  54.8120       283
  54.8340       321
  54.8560       311
  54.8780       312
  54.9000       325
  54.9220       294
  54.9440       282
  54.9660       344
  54.9880       287
  55.0100       332
  55.0320       327
  55.0540       311
  55.0760       322
  55.0980       301
  55.1200       299
  55.1420       295
  55.1640       290
  55.1860       323
  55.2080       295
  55.2300       247
  55.2520       289
  55.2740       292
  55.2960       262
  55.3180       261
  55.3400       271
  55.3620       262
  55.3840       233
  55.4060       234
  55.4280       239
  55.4500       258
  55.4720       240
  55.4940       260
  55.5160       245
  55.5380       250
  55.5600       227
  55.5820       232
  55.6040       224
  55.6260       244
  55.6480       233
  55.6700       216
  55.6920       235
  55.7140       212
  55.7360       258
  55.7580       202
  55.7800       239
  55.8020       258
  55.8240       232
  55.8460       216
  55.8680       218
  55.8900       209
  55.9120       222
  55.9340       234
  55.9560       274
  55.9780       248
  56.0000       215
  56.0220       245
  56.0440       222
  56.0660       267
  56.0880       228
  56.1100       227
  56.1320       211
  56.1540       225
  56.1760       235
  56.1980       227
  56.2200       237
  56.2420       216
  56.2640       233
  56.2860       207
  56.3080       235
  56.3300       218
  56.3520       204
  56.3740       228
  56.3960       256
  56.4180       216
  56.4400       235
  56.4620       228
  56.4840       239
  56.5060       211
  56.5280       240
  56.5500       226
  56.5720       226
  56.5940       245
  56.6160       206
  56.6380       212
  56.6600       218
  56.6820       233
  56.7040       236
  56.7260       210
  56.7480       257
  56.7700       199
  56.7920       219
  56.8140       234
  56.8360       222
  56.8580       209
  56.8800       228
  56.9020       243
  56.9240       205
  56.9460       222
  56.9680       243
  56.9900       235
  57.0120       218
  57.0340       236
  57.0560       238
  57.0780       200
  57.1000       251
  57.1220       224
  57.1440       211
  57.1660       246
  57.1880       198
  57.2100       209
  57.2320       209
  57.2540       196
  57.2760       209
  57.2980       261
  57.3200       237
  57.3420       228
  57.3640       237
  57.3860       202
  57.4080       210
  57.4300       216
  57.4520       227
  57.4740       217
  57.4960       240
  57.5180       224
  57.5400       232
  57.5620       205
  57.5840       220
  57.6060       202
  57.6280       228
  57.6500       205
  57.6720       202
  57.6940       231
  57.7160       245
  57.7380       217
  57.7600       241
  57.7820       218
  57.8040       233
  57.8260       217
  57.8480       244
  57.8700       236
  57.8920       235
  57.9140       229
  57.9360       240
  57.9580       231
  57.9800       211
  58.0020       211
  58.0240       214
  58.0460       218
  58.0680       231
  58.0900       235
  58.1120       214
  58.1340       236
  58.1560       235
  58.1780       209
  58.2000       198
  58.2220       228
  58.2440       197
  58.2660       228
  58.2880       196
  58.3100       225
  58.3320       200
  58.3540       252
  58.3760       208
  58.3980       207
  58.4200       227
  58.4420       230
  58.4640       215
  58.4860       204
  58.5080       243
  58.5300       238
  58.5520       231
  58.5740       196
  58.5960       230
  58.6180       211
  58.6400       222
  58.6620       242
  58.6840       211
  58.7060       221
  58.7280       238
  58.7500       247
  58.7720       236
  58.7940       223
  58.8160       213
  58.8380       200
  58.8600       212
  58.8820       233
  58.9040       197
  58.9260       246
  58.9480       243
  58.9700       222
  58.9920       244
  59.0140       211
  59.0360       219
  59.0580       227
  59.0800       239
  59.1020       273
  59.1240       233
  59.1460       218
  59.1680       216
  59.1900       215
  59.2120       223
  59.2340       229
  59.2560       240
  59.2780       217
  59.3000       223
  59.3220       227
  59.3440       220
  59.3660       224
  59.3880       231
  59.4100       233
  59.4320       244
  59.4540       216
  59.4760       222
  59.4980       196
  59.5200       237
  59.5420       231
  59.5640       214
  59.5860       250
  59.6080       221
  59.6300       246
  59.6520       231
  59.6740       223
  59.6960       242
  59.7180       227
  59.7400       246
  59.7620       225
  59.7840       207
  59.8060       224
  59.8280       230
  59.8500       218
  59.8720       225
  59.8940       240
  59.9160       250
  59.9380       245
  59.9600       219
  59.9820       251
  60.0040       247
  60.0260       229
  60.0480       241
  60.0700       236
  60.0920       232
  60.1140       230
  60.1360       189
  60.1580       279
  60.1800       252
  60.2020       216
  60.2240       238
  60.2460       264
  60.2680       222
  60.2900       260
  60.3120       248
  60.3340       230
  60.3560       250
  60.3780       273
  60.4000       277
  60.4220       270
  60.4440       278
  60.4660       282
  60.4880       265
  60.5100       270
  60.5320       288
  60.5540       288
  60.5760       290
  60.5980       267
  60.6200       310
  60.6420       286
  60.6640       278
  60.6860       299
  60.7080       299
  60.7300       279
  60.7520       310
  60.7740       279
  60.7960       287
  60.8180       294
  60.8400       259
  60.8620       306
  60.8840       296
  60.9060       276
  60.9280       277
  60.9500       273
  60.9720       249
  60.9940       263
  61.0160       261
  61.0380       259
  61.0600       273
  61.0820       246
  61.1040       286
  61.1260       242
  61.1480       279
  61.1700       241
  61.1920       239
  61.2140       253
  61.2360       225
  61.2580       232
  61.2800       234
  61.3020       228
  61.3240       229
  61.3460       244
  61.3680       223
  61.3900       250
  61.4120       227
  61.4340       232
  61.4560       253
  61.4780       259
  61.5000       210
  61.5220       214
  61.5440       255
  61.5660       235
  61.5880       253
  61.6100       264
  61.6320       231
  61.6540       222
  61.6760       232
  61.6980       236
  61.7200       251
  61.7420       220
  61.7640       220
  61.7860       220
  61.8080       225
  61.8300       230
  61.8520       234
  61.8740       230
  61.8960       243
  61.9180       230
  61.9400       238
  61.9620       231
  61.9840       244
  62.0060       236
  62.0280       227
  62.0500       237
  62.0720       237
  62.0940       236
  62.1160       230
  62.1380       246
  62.1600       245
  62.1820       235
  62.2040       225
  62.2260       218
  62.2480       228
  62.2700       239
  62.2920       226
  62.3140       252
  62.3360       234
  62.3580       219
  62.3800       225
  62.4020       192
  62.4240       246
  62.4460       217
  62.4680       222
  62.4900       220
  62.5120       215
  62.5340       231
  62.5560       253
  62.5780       258
  62.6000       201
  62.6220       230
  62.6440       236
  62.6660       204
  62.6880       235
  62.7100       218
  62.7320       204
  62.7540       230
  62.7760       239
  62.7980       215
  62.8200       231
  62.8420       233
  62.8640       239
  62.8860       207
  62.9080       232
  62.9300       228
  62.9520       229
  62.9740       260
  62.9960       227
  63.0180       207
  63.0400       237
  63.0620       220
  63.0840       213
  63.1060       225
  63.1280       229
  63.1500       218
  63.1720       216
  63.1940       237
  63.2160       237
  63.2380       203
  63.2600       214
  63.2820       216
  63.3040       200
  63.3260       210
  63.3480       216
  63.3700       223
  63.3920       235
  63.4140       230
  63.4360       230
  63.4580       235
  63.4800       244
  63.5020       217
  63.5240       221
  63.5460       227
  63.5680       251
  63.5900       231
  63.6120       217
  63.6340       228
  63.6560       215
  63.6780       230
  63.7000       239
  63.7220       220
  63.7440       231
  63.7660       232
  63.7880       250
  63.8100       219
  63.8320       212
  63.8540       228
  63.8760       205
  63.8980       255
  63.9200       222
  63.9420       218
  63.9640       225
  63.9860       245
  64.0080       226
  64.0300       220
  64.0520       212
  64.0740       233
  64.0960       227
  64.1180       218
  64.1400       234
  64.1620       232
  64.1840       220
  64.2060       216
  64.2280       212
  64.2500       229
  64.2720       229
  64.2940       240
  64.3160       214
  64.3380       232
  64.3600       217
  64.3820       225
  64.4040       206
  64.4260       236
  64.4480       226
  64.4700       245
  64.4920       231
  64.5140       220
  64.5360       219
  64.5580       208
  64.5800       219
  64.6020       214
  64.6240       249
  64.6460       254
  64.6680       237
  64.6900       258
  64.7120       230
  64.7340       243
  64.7560       226
  64.7780       255
  64.8000       217
  64.8220       210
  64.8440       256
  64.8660       244
  64.8880       228
  64.9100       201
  64.9320       252
  64.9540       239
  64.9760       252
  64.9980       223
  65.0200       250
  65.0420       253
  65.0640       219
  65.0860       196
  65.1080       251
  65.1300       237
  65.1520       237
  65.1740       250
  65.1960       238
  65.2180       217
  65.2400       235
  65.2620       225
  65.2840       230
  65.3060       236
  65.3280       224
  65.3500       231
  65.3720       250
  65.3940       242
  65.4160       235
  65.4380       207
  65.4600       236
  65.4820       218
  65.5040       222
  65.5260       214
  65.5480       273
  65.5700       244
  65.5920       197
  65.6140       231
  65.6360       246
  65.6580       208
  65.6800       249
  65.7020       199
  65.7240       231
  65.7460       225
  65.7680       228
  65.7900       211
  65.8120       237
  65.8340       242
  65.8560       223
  65.8780       199
  65.9000       226
  65.9220       216
  65.9440       238
  65.9660       259
  65.9880       239
  66.0100       245
  66.0320       236
  66.0540       222
  66.0760       198
  66.0980       241
  66.1200       201
  66.1420       245
  66.1640       223
  66.1860       205
  66.2080       190
  66.2300       197
  66.2520       216
  66.2740       244
  66.2960       228
  66.3180       225
  66.3400       200
  66.3620       199
  66.3840       210
  66.4060       220
  66.4280       221
  66.4500       229
  66.4720       247
  66.4940       231
  66.5160       221
  66.5380       226
  66.5600       248
  66.5820       197
  66.6040       240
  66.6260       198
  66.6480       227
  66.6700       241
  66.6920       215
  66.7140       227
  66.7360       205
  66.7580       221
  66.7800       222
  66.8020       196
  66.8240       226
  66.8460       245
  66.8680       244
  66.8900       221
  66.9120       225
  66.9340       240
  66.9560       248
  66.9780       245
  67.0000       229
  67.0220       244
  67.0440       201
  67.0660       207
  67.0880       209
  67.1100       218
  67.1320       233
  67.1540       223
  67.1760       224
  67.1980       238
  67.2200       246
  67.2420       217
  67.2640       210
  67.2860       239
  67.3080       210
  67.3300       222
  67.3520       215
  67.3740       234
  67.3960       235
  67.4180       237
  67.4400       211
  67.4620       238
  67.4840       219
  67.5060       221
  67.5280       214
  67.5500       215
  67.5720       209
  67.5940       208
  67.6160       217
  67.6380       234
  67.6600       234
  67.6820       203
  67.7040       208
  67.7260       223
  67.7480       245
  67.7700       256
  67.7920       212
  67.8140       235
  67.8360       219
  67.8580       249
  67.8800       245
  67.9020       254
  67.9240       224
  67.9460       247
  67.9680       215
  67.9900       219
  68.0120       233
  68.0340       220
  68.0560       222
  68.0780       237
  68.1000       231
  68.1220       236
  68.1440       250
  68.1660       218
  68.1880       249
  68.2100       221
  68.2320       192
  68.2540       224
  68.2760       220
  68.2980       193
  68.3200       225
  68.3420       215
  68.3640       239
  68.3860       230
  68.4080       203
  68.4300       223
  68.4520       230
  68.4740       252
  68.4960       239
  68.5180       216
  68.5400       208
  68.5620       243
  68.5840       208
  68.6060       184
  68.6280       216
  68.6500       187
  68.6720       213
  68.6940       211
  68.7160       218
  68.7380       234
  68.7600       230
  68.7820       206
  68.8040       224
  68.8260       214
  68.8480       255
  68.8700       238
  68.8920       232
  68.9140       221
  68.9360       240
  68.9580       215
  68.9800       231
  69.0020       216
  69.0240       211
  69.0460       248
  69.0680       228
  69.0900       213
  69.1120       208
  69.1340       204
  69.1560       205
  69.1780       206
  69.2000       224
  69.2220       227
  69.2440       248
  69.2660       197
  69.2880       219
  69.3100       241
  69.3320       230
  69.3540       242
  69.3760       246
  69.3980       248
  69.4200       236
  69.4420       225
  69.4640       215
  69.4860       231
  69.5080       238
  69.5300       222
  69.5520       212
  69.5740       213
  69.5960       235
  69.6180       237
  69.6400       229
  69.6620       201
  69.6840       242
  69.7060       239
  69.7280       222
  69.7500       223
  69.7720       245
  69.7940       249
  69.8160       216
  69.8380       202
  69.8600       220
  69.8820       235
  69.9040       221
  69.9260       250
  69.9480       227
  69.9700       228
  69.9920       219
  70.0140       224
  70.0360       235
  70.0580       236
  70.0800       214
  70.1020       219
  70.1240       233
  70.1460       195
  70.1680       241
  70.1900       252
  70.2120       222
  70.2340       230
  70.2560       237
  70.2780       211
  70.3000       260
  70.3220       208
  70.3440       235
  70.3660       222
  70.3880       263
  70.4100       198
  70.4320       243
  70.4540       236
  70.4760       229
  70.4980       224
  70.5200       250
  70.5420       263
  70.5640       236
  70.5860       224
  70.6080       250
  70.6300       277
  70.6520       264
  70.6740       298
  70.6960       259
  70.7180       274
  70.7400       247
  70.7620       266
  70.7840       270
  70.8060       301
  70.8280       277
  70.8500       290
  70.8720       343
  70.8940       339
  70.9160       328
  70.9380       328
  70.9600       349
  70.9820       326
  71.0040       340
  71.0260       401
  71.0480       385
  71.0700       444
  71.0920       443
  71.1140       451
  71.1360       451
  71.1580       501
  71.1800       527
  71.2020       529
  71.2240       593
  71.2460       599
  71.2680       566
  71.2900       597
  71.3120       630
  71.3340       662
  71.3560       645
  71.3780       608
  71.4000       608
  71.4220       559
  71.4440       553
  71.4660       547
  71.4880       522
  71.5100       503
  71.5320       510
  71.5540       499
  71.5760       488
  71.5980       444
  71.6200       397
  71.6420       345
  71.6640       365
  71.6860       299
  71.7080       328
  71.7300       320
  71.7520       301
  71.7740       270
  71.7960       271
  71.8180       275
  71.8400       267
  71.8620       220
  71.8840       292
  71.9060       275
  71.9280       229
  71.9500       233
  71.9720       283
  71.9940       268
  72.0160       237
  72.0380       237
  72.0600       227
  72.0820       228
  72.1040       269
  72.1260       245
  72.1480       242
  72.1700       234
  72.1920       232
  72.2140       208
  72.2360       231
  72.2580       220
  72.2800       227
  72.3020       243
  72.3240       236
  72.3460       263
  72.3680       234
  72.3900       194
  72.4120       207
  72.4340       224
  72.4560       228
  72.4780       251
  72.5000       236
  72.5220       239
  72.5440       272
  72.5660       226
  72.5880       232
  72.6100       240
  72.6320       241
  72.6540       231
  72.6760       229
  72.6980       235
  72.7200       213
  72.7420       199
  72.7640       230
  72.7860       226
  72.8080       245
  72.8300       215
  72.8520       212
  72.8740       208
  72.8960       240
  72.9180       231
  72.9400       217
  72.9620       230
  72.9840       251
  73.0060       197
  73.0280       221
  73.0500       212
  73.0720       203
  73.0940       230
  73.1160       232
  73.1380       197
  73.1600       225
  73.1820       225
  73.2040       211
  73.2260       207
  73.2480       222
  73.2700       206
  73.2920       248
  73.3140       224
  73.3360       226
  73.3580       227
  73.3800       218
  73.4020       208
  73.4240       226
  73.4460       202
  73.4680       223
  73.4900       203
  73.5120       230
  73.5340       210
  73.5560       216
  73.5780       208
  73.6000       251
  73.6220       213
  73.6440       250
  73.6660       225
  73.6880       208
  73.7100       256
  73.7320       201
  73.7540       201
  73.7760       224
  73.7980       187
  73.8200       242
  73.8420       233
  73.8640       200
  73.8860       212
  73.9080       209
  73.9300       197
  73.9520       221
  73.9740       215
  73.9960       225
  74.0180       217
  74.0400       222
  74.0620       206
  74.0840       218
  74.1060       206
  74.1280       224
  74.1500       219
  74.1720       240
  74.1940       211
  74.2160       225
  74.2380       201
  74.2600       213
  74.2820       216
  74.3040       220
  74.3260       197
  74.3480       230
  74.3700       242
  74.3920       232
  74.4140       221
  74.4360       208
  74.4580       231
  74.4800       240
  74.5020       229
  74.5240       225
  74.5460       231
  74.5680       227
  74.5900       235
  74.6120       213
  74.6340       209
  74.6560       202
  74.6780       251
  74.7000       224
  74.7220       209
  74.7440       216
  74.7660       214
  74.7880       208
  74.8100       215
  74.8320       239
  74.8540       197
  74.8760       229
  74.8980       227
  74.9200       211
  74.9420       198
  74.9640       217
  74.9860       194
  75.0080       198
  75.0300       228
  75.0520       206
  75.0740       185
  75.0960       216
  75.1180       230
  75.1400       235
  75.1620       249
  75.1840       207
  75.2060       213
  75.2280       211
  75.2500       230
  75.2720       207
  75.2940       233
  75.3160       217
  75.3380       234
  75.3600       230
  75.3820       229
  75.4040       198
  75.4260       202
  75.4480       239
  75.4700       242
  75.4920       217
  75.5140       220
  75.5360       246
  75.5580       230
  75.5800       211
  75.6020       231
  75.6240       232
  75.6460       232
  75.6680       227
  75.6900       199
  75.7120       230
  75.7340       196
  75.7560       212
  75.7780       178
  75.8000       230
  75.8220       258
  75.8440       203
  75.8660       260
  75.8880       227
  75.9100       261
  75.9320       197
  75.9540       224
  75.9760       241
  75.9980       261
  76.0200       240
  76.0420       272
  76.0640       238
  76.0860       262
  76.1080       225
  76.1300       242
  76.1520       236
  76.1740       238
  76.1960       275
  76.2180       249
  76.2400       298
  76.2620       279
  76.2840       273
  76.3060       274
  76.3280       263
  76.3500       304
  76.3720       258
  76.3940       262
  76.4160       284
  76.4380       268
  76.4600       269
  76.4820       256
  76.5040       265
  76.5260       266
  76.5480       270
  76.5700       260
  76.5920       230
  76.6140       258
  76.6360       226
  76.6580       246
  76.6800       265
  76.7020       260
  76.7240       240
  76.7460       249
  76.7680       237
  76.7900       237
  76.8120       229
  76.8340       244
  76.8560       237
  76.8780       243
  76.9000       233
  76.9220       236
  76.9440       225
  76.9660       225
  76.9880       214
  77.0100       240
  77.0320       238
  77.0540       226
  77.0760       194
  77.0980       200
  77.1200       225
  77.1420       230
  77.1640       238
  77.1860       224
  77.2080       200
  77.2300       233
  77.2520       221
  77.2740       219
  77.2960       225
  77.3180       232
  77.3400       240
  77.3620       220
  77.3840       227
  77.4060       240
  77.4280       237
  77.4500       226
  77.4720       235
  77.4940       223
  77.5160       217
  77.5380       223
  77.5600       242
  77.5820       241
  77.6040       248
  77.6260       232
  77.6480       229
  77.6700       231
  77.6920       233
  77.7140       239
  77.7360       230
  77.7580       231
  77.7800       220
  77.8020       238
  77.8240       255
  77.8460       225
  77.8680       224
  77.8900       219
  77.9120       208
  77.9340       233
  77.9560       203
  77.9780       216
  78.0000       217
  78.0220       230
  78.0440       217
  78.0660       228
  78.0880       206
  78.1100       263
  78.1320       194
  78.1540       257
  78.1760       234
  78.1980       210
  78.2200       204
  78.2420       225
  78.2640       232
  78.2860       223
  78.3080       193
  78.3300       198
  78.3520       204
  78.3740       202
  78.3960       217
  78.4180       239
  78.4400       235
  78.4620       219
  78.4840       239
  78.5060       214
  78.5280       215
  78.5500       198
  78.5720       224
  78.5940       224
  78.6160       220
  78.6380       185
  78.6600       246
  78.6820       226
  78.7040       211
  78.7260       230
  78.7480       216
  78.7700       247
  78.7920       231
  78.8140       211
  78.8360       203
  78.8580       236
  78.8800       224
  78.9020       230
  78.9240       197
  78.9460       233
  78.9680       217
  78.9900       190
  79.0120       204
  79.0340       216
  79.0560       216
  79.0780       222
  79.1000       208
  79.1220       212
  79.1440       219
  79.1660       219
  79.1880       221
  79.2100       235
  79.2320       225
  79.2540       234
  79.2760       216
  79.2980       220
  79.3200       226
  79.3420       214
  79.3640       201
  79.3860       221
  79.4080       216
  79.4300       203
  79.4520       227
  79.4740       207
  79.4960       225
  79.5180       189
  79.5400       225
  79.5620       220
  79.5840       205
  79.6060       220
  79.6280       209
  79.6500       243
  79.6720       223
  79.6940       207
  79.7160       203
  79.7380       211
  79.7600       209
  79.7820       228
  79.8040       213
  79.8260       212
  79.8480       221
  79.8700       215
  79.8920       244
  79.9140       229
  79.9360       200
  79.9580       221
  79.9800       219
  80.0020       225
  80.0240       198
  80.0460       221
  80.0680       223
  80.0900       210
  80.1120       228
  80.1340       224
  80.1560       226
  80.1780       205
  80.2000       221
  80.2220       248
  80.2440       190
  80.2660       212
  80.2880       210
  80.3100       211
  80.3320       226
  80.3540       247
  80.3760       220
  80.3980       224
  80.4200       225
  80.4420       238
  80.4640       227
  80.4860       200
  80.5080       232
  80.5300       192
  80.5520       241
  80.5740       233
  80.5960       218
  80.6180       222
  80.6400       215
  80.6620       233
  80.6840       230
  80.7060       215
  80.7280       191
  80.7500       244
  80.7720       230
  80.7940       256
  80.8160       240
  80.8380       230
  80.8600       242
  80.8820       209
  80.9040       219
  80.9260       226
  80.9480       231
  80.9700       213
  80.9920       229
  81.0140       233
  81.0360       212
  81.0580       241
  81.0800       244
  81.1020       233
  81.1240       231
  81.1460       244
  81.1680       259
  81.1900       238
  81.2120       251
  81.2340       224
  81.2560       242
  81.2780       255
  81.3000       270
  81.3220       213
  81.3440       231
  81.3660       250
  81.3880       245
  81.4100       226
  81.4320       245
  81.4540       253
  81.4760       224
  81.4980       239
  81.5200       232
  81.5420       235
  81.5640       224
  81.5860       208
  81.6080       227
  81.6300       222
  81.6520       232
  81.6740       206
  81.6960       217
  81.7180       267
  81.7400       231
  81.7620       200
  81.7840       212
  81.8060       240
  81.8280       214
  81.8500       230
  81.8720       240
  81.8940       261
  81.9160       221
  81.9380       226
  81.9600       209
  81.9820       205
  82.0040       219
  82.0260       203
  82.0480       225
  82.0700       206
  82.0920       226
  82.1140       217
  82.1360       206
  82.1580       214
  82.1800       212
  82.2020       236
  82.2240       206
  82.2460       209
  82.2680       214
  82.2900       205
  82.3120       209
  82.3340       187
  82.3560       216
  82.3780       223
  82.4000       219
  82.4220       233
  82.4440       211
  82.4660       212
  82.4880       215
  82.5100       211
  82.5320       206
  82.5540       213
  82.5760       227
  82.5980       215
  82.6200       198
  82.6420       193
  82.6640       223
  82.6860       218
  82.7080       219
  82.7300       225
  82.7520       218
  82.7740       209
  82.7960       208
  82.8180       187
  82.8400       217
  82.8620       214
  82.8840       209
  82.9060       214
  82.9280       196
  82.9500       212
  82.9720       192
  82.9940       200
  83.0160       226
  83.0380       207
  83.0600       195
  83.0820       218
  83.1040       208
  83.1260       206
  83.1480       191
  83.1700       210
  83.1920       181
  83.2140       220
  83.2360       194
  83.2580       210
  83.2800       199
  83.3020       213
  83.3240       216
  83.3460       186
  83.3680       214
  83.3900       216
  83.4120       226
  83.4340       195
  83.4560       210
  83.4780       229
  83.5000       224
  83.5220       193
  83.5440       216
  83.5660       213
  83.5880       205
  83.6100       220
  83.6320       211
  83.6540       226
  83.6760       219
  83.6980       220
  83.7200       224
  83.7420       218
  83.7640       224
  83.7860       186
  83.8080       216
  83.8300       210
  83.8520       221
  83.8740       205
  83.8960       221
  83.9180       226
  83.9400       208
  83.9620       213
  83.9840       215
  84.0060       217
  84.0280       200
  84.0500       224
  84.0720       259
  84.0940       202
  84.1160       209
  84.1380       214
  84.1600       238
  84.1820       200
  84.2040       246
  84.2260       218
  84.2480       209
  84.2700       246
  84.2920       221
  84.3140       217
  84.3360       226
  84.3580       216
  84.3800       213
  84.4020       223
  84.4240       232
  84.4460       220
  84.4680       226
  84.4900       197
  84.5120       264
  84.5340       202
  84.5560       217
  84.5780       230
  84.6000       213
  84.6220       226
  84.6440       196
  84.6660       225
  84.6880       200
  84.7100       210
  84.7320       223
  84.7540       195
  84.7760       232
  84.7980       258
  84.8200       242
  84.8420       254
  84.8640       211
  84.8860       272
  84.9080       227
  84.9300       218
  84.9520       218
  84.9740       263
  84.9960       225
  85.0180       262
  85.0400       254
  85.0620       243
  85.0840       234
  85.1060       236
  85.1280       200
  85.1500       204
  85.1720       272
  85.1940       250
  85.2160       254
  85.2380       265
  85.2600       231
  85.2820       268
  85.3040       232
  85.3260       263
  85.3480       251
  85.3700       299
  85.3920       251
  85.4140       268
  85.4360       283
  85.4580       319
  85.4800       287
  85.5020       314
  85.5240       309
  85.5460       329
  85.5680       317
  85.5900       348
  85.6120       327
  85.6340       334
  85.6560       326
  85.6780       362
  85.7000       324
  85.7220       353
  85.7440       381
  85.7660       408
  85.7880       391
  85.8100       420
  85.8320       405
  85.8540       404
  85.8760       443
  85.8980       445
  85.9200       439
  85.9420       478
  85.9640       474
  85.9860       509
  86.0080       510
  86.0300       535
  86.0520       564
  86.0740       538
  86.0960       595
  86.1180       567
  86.1400       584
  86.1620       562
  86.1840       547
  86.2060       538
  86.2280       522
  86.2500       558
  86.2720       492
  86.2940       496
  86.3160       497
  86.3380       445
  86.3600       454
  86.3820       416
  86.4040       444
  86.4260       414
  86.4480       430
  86.4700       379
  86.4920       379
  86.5140       343
  86.5360       350
  86.5580       375
  86.5800       299
  86.6020       308
  86.6240       321
  86.6460       288
  86.6680       297
  86.6900       291
  86.7120       269
  86.7340       295
  86.7560       243
  86.7780       262
  86.8000       263
  86.8220       274
  86.8440       261
  86.8660       242
  86.8880       280
  86.9100       245
  86.9320       220
  86.9540       245
  86.9760       251
  86.9980       233
  87.0200       243
  87.0420       211
  87.0640       223
  87.0860       241
  87.1080       215
  87.1300       241
  87.1520       228
  87.1740       223
  87.1960       207
  87.2180       226
  87.2400       219
  87.2620       221
  87.2840       218
  87.3060       220
  87.3280       245
  87.3500       202
  87.3720       235
  87.3940       190
  87.4160       243
  87.4380       184
  87.4600       243
  87.4820       229
  87.5040       217
  87.5260       208
  87.5480       212
  87.5700       195
  87.5920       205
  87.6140       215
  87.6360       186
  87.6580       214
  87.6800       223
  87.7020       222
  87.7240       216
  87.7460       250
  87.7680       202
  87.7900       205
  87.8120       220
  87.8340       212
  87.8560       186
  87.8780       207
  87.9000       202
  87.9220       219
  87.9440       206
  87.9660       210
  87.9880       215
  88.0100       226
  88.0320       185
  88.0540       229
  88.0760       213
  88.0980       223
  88.1200       208
  88.1420       205
  88.1640       207
  88.1860       216
  88.2080       193
  88.2300       203
  88.2520       225
  88.2740       223
  88.2960       215
  88.3180       188
  88.3400       218
  88.3620       234
  88.3840       183
  88.4060       220
  88.4280       207
  88.4500       187
  88.4720       202
  88.4940       207
  88.5160       207
  88.5380       223
  88.5600       194
  88.5820       236
  88.6040       192
  88.6260       215
  88.6480       224
  88.6700       219
  88.6920       183
  88.7140       208
  88.7360       213
  88.7580       213
  88.7800       201
  88.8020       205
  88.8240       216
  88.8460       222
  88.8680       218
  88.8900       216
  88.9120       207
  88.9340       188
  88.9560       219
  88.9780       219
  89.0000       219
  89.0220       206
  89.0440       199
  89.0660       197
  89.0880       212
  89.1100       199
  89.1320       213
  89.1540       202
  89.1760       198
  89.1980       203
  89.2200       202
  89.2420       200
  89.2640       210
  89.2860       223
  89.3080       219
  89.3300       217
  89.3520       208
  89.3740       199
  89.3960       202
  89.4180       200
  89.4400       231
  89.4620       205
  89.4840       198
  89.5060       199
  89.5280       217
  89.5500       202
  89.5720       207
  89.5940       214
  89.6160       192
  89.6380       178
  89.6600       211
  89.6820       230
  89.7040       194
  89.7260       209
  89.7480       234
  89.7700       200
  89.7920       213
  89.8140       188
  89.8360       208
  89.8580       198
  89.8800       210
  89.9020       223
  89.9240       200
  89.9460       209
  89.9680       211
  89.9900       208
  90.0120       189
  90.0340       218
  90.0560       207
  90.0780       215
  90.1000       216
  90.1220       216
  90.1440       230
  90.1660       249
  90.1880       240
  90.2100       206
  90.2320       233
  90.2540       244
  90.2760       227
  90.2980       228
  90.3200       242
  90.3420       234
  90.3640       228
  90.3860       244
  90.4080       235
  90.4300       237
  90.4520       247
  90.4740       207
  90.4960       241
  90.5180       211
  90.5400       222
  90.5620       260
  90.5840       244
  90.6060       216
  90.6280       251
  90.6500       245
  90.6720       262
  90.6940       261
  90.7160       261
  90.7380       275
  90.7600       274
  90.7820       274
  90.8040       281
  90.8260       256
  90.8480       251
  90.8700       287
  90.8920       287
  90.9140       322
  90.9360       288
  90.9580       310
  90.9800       303
  91.0020       299
  91.0240       315
  91.0460       286
  91.0680       291
  91.0900       283
  91.1120       313
  91.1340       292
  91.1560       284
  91.1780       274
  91.2000       297
  91.2220       264
  91.2440       266
  91.2660       252
  91.2880       259
  91.3100       261
  91.3320       246
  91.3540       236
  91.3760       246
  91.3980       217
  91.4200       271
  91.4420       218
  91.4640       219
  91.4860       213
  91.5080       243
  91.5300       216
  91.5520       225
  91.5740       222
  91.5960       238
  91.6180       206
  91.6400       253
  91.6620       232
  91.6840       206
  91.7060       204
  91.7280       230
  91.7500       235
  91.7720       209
  91.7940       212
  91.8160       216
  91.8380       213
  91.8600       198
  91.8820       204
  91.9040       210
  91.9260       201
  91.9480       200
  91.9700       198
  91.9920       199
  92.0140       193
  92.0360       207
  92.0580       207
  92.0800       227
  92.1020       253
  92.1240       207
  92.1460       199
  92.1680       221
  92.1900       212
  92.2120       201
  92.2340       200
  92.2560       207
  92.2780       222
  92.3000       209
  92.3220       200
  92.3440       217
  92.3660       241
  92.3880       238
  92.4100       192
  92.4320       204
  92.4540       201
  92.4760       241
  92.4980       217
  92.5200       176
  92.5420       192
  92.5640       182
  92.5860       186
  92.6080       205
  92.6300       198
  92.6520       189
  92.6740       182
  92.6960       208
  92.7180       198
  92.7400       220
  92.7620       220
  92.7840       228
  92.8060       203
  92.8280       215
  92.8500       214
  92.8720       226
  92.8940       210
  92.9160       221
  92.9380       178
  92.9600       200
  92.9820       220
  93.0040       228
  93.0260       195
  93.0480       210
  93.0700       200
  93.0920       183
  93.1140       208
  93.1360       205
  93.1580       190
  93.1800       231
  93.2020       202
  93.2240       194
  93.2460       205
  93.2680       209
  93.2900       224
  93.3120       207
  93.3340       231
  93.3560       191
  93.3780       196
  93.4000       215
  93.4220       199
  93.4440       198
  93.4660       225
  93.4880       202
  93.5100       188
  93.5320       202
  93.5540       207
  93.5760       208
  93.5980       234
  93.6200       191
  93.6420       198
  93.6640       196
  93.6860       204
  93.7080       201
  93.7300       210
  93.7520       210
  93.7740       195
  93.7960       225
  93.8180       205
  93.8400       201
  93.8620       192
  93.8840       203
  93.9060       198
  93.9280       239
  93.9500       213
  93.9720       200
  93.9940       206
  94.0160       182
  94.0380       212
  94.0600       174
  94.0820       216
  94.1040       201
  94.1260       235
  94.1480       229
  94.1700       221
  94.1920       199
  94.2140       223
  94.2360       215
  94.2580       226
  94.2800       209
  94.3020       206
  94.3240       257
  94.3460       203
  94.3680       218
  94.3900       204
  94.4120       228
  94.4340       219
  94.4560       223
  94.4780       202
  94.5000       196
  94.5220       216
  94.5440       221
  94.5660       179
  94.5880       208
  94.6100       226
  94.6320       213
  94.6540       214
  94.6760       223
  94.6980       208
  94.7200       170
  94.7420       204
  94.7640       195
  94.7860       227
  94.8080       217
  94.8300       219
  94.8520       190
  94.8740       232
  94.8960       211
  94.9180       215
  94.9400       215
  94.9620       199
  94.9840       204
  95.0060       223
  95.0280       214
  95.0500       220
  95.0720       213
  95.0940       164
  95.1160       213
  95.1380       212
  95.1600       208
  95.1820       241
  95.2040       236
  95.2260       216
  95.2480       212
  95.2700       240
  95.2920       229
  95.3140       218
  95.3360       212
  95.3580       236
  95.3800       231
  95.4020       227
  95.4240       217
  95.4460       221
  95.4680       210
  95.4900       214
  95.5120       202
  95.5340       215
  95.5560       210
  95.5780       235
  95.6000       242
  95.6220       217
  95.6440       248
  95.6660       231
  95.6880       222
  95.7100       250
  95.7320       220
  95.7540       231
  95.7760       224
  95.7980       237
  95.8200       255
  95.8420       239
  95.8640       246
  95.8860       239
  95.9080       228
  95.9300       223
  95.9520       247
  95.9740       270
  95.9960       247
  96.0180       232
  96.0400       240
  96.0620       246
  96.0840       243
  96.1060       227
  96.1280       233
  96.1500       219
  96.1720       225
  96.1940       213
  96.2160       230
  96.2380       215
  96.2600       229
  96.2820       208
  96.3040       247
  96.3260       206
  96.3480       235
  96.3700       194
  96.3920       210
  96.4140       231
  96.4360       211
  96.4580       219
  96.4800       196
  96.5020       220
  96.5240       210
  96.5460       194
  96.5680       214
  96.5900       196
  96.6120       216
  96.6340       207
  96.6560       228
  96.6780       215
  96.7000       227
  96.7220       194
  96.7440       218
  96.7660       221
  96.7880       211
  96.8100       194
  96.8320       207
  96.8540       209
  96.8760       215
  96.8980       198
  96.9200       247
  96.9420       220
  96.9640       210
  96.9860       212
  97.0080       229
  97.0300       200
  97.0520       217
  97.0740       184
  97.0960       225
  97.1180       219
  97.1400       198
  97.1620       238
  97.1840       214
  97.2060       204
  97.2280       235
  97.2500       219
  97.2720       215
  97.2940       221
  97.3160       211
  97.3380       208
  97.3600       203
  97.3820       198
  97.4040       206
  97.4260       218
  97.4480       238
  97.4700       209
  97.4920       216
  97.5140       224
  97.5360       197
  97.5580       221
  97.5800       202
  97.6020       230
  97.6240       172
  97.6460       204
  97.6680       210
  97.6900       207
  97.7120       212
  97.7340       242
  97.7560       208
  97.7780       222
  97.8000       208
  97.8220       224
  97.8440       186
  97.8660       205
  97.8880       203
  97.9100       203
  97.9320       226
  97.9540       291
  97.9760       188
  97.9980       214
  98.0200       205
  98.0420       183
  98.0640       209
  98.0860       239
  98.1080       202
  98.1300       211
  98.1520       203
  98.1740       214
  98.1960       196
  98.2180       215
  98.2400       211
  98.2620       216
  98.2840       229
  98.3060       214
  98.3280       197
  98.3500       234
  98.3720       233
  98.3940       219
  98.4160       215
  98.4380       224
  98.4600       192
  98.4820       194
  98.5040       219
  98.5260       214
  98.5480       233
  98.5700       194
  98.5920       233
  98.6140       209
  98.6360       205
  98.6580       204
  98.6800       223
  98.7020       218
  98.7240       205
  98.7460       193
  98.7680       217
  98.7900       241
  98.8120       218
  98.8340       215
  98.8560       218
  98.8780       188
  98.9000       211
  98.9220       216
  98.9440       204
  98.9660       209
  98.9880       223
  99.0100       189
  99.0320       216
  99.0540       221
  99.0760       221
  99.0980       229
  99.1200       221
  99.1420       196
  99.1640       208
  99.1860       193
  99.2080       215
  99.2300       228
  99.2520       210
  99.2740       209
  99.2960       237
  99.3180       202
  99.3400       249
  99.3620       233
  99.3840       202
  99.4060       230
  99.4280       216
  99.4500       225
  99.4720       185
  99.4940       203
  99.5160       234
  99.5380       202
  99.5600       213
  99.5820       231
  99.6040       204
  99.6260       191
  99.6480       207
  99.6700       213
  99.6920       209
  99.7140       221
  99.7360       196
  99.7580       216
  99.7800       230
  99.8020       220
  99.8240       212
  99.8460       213
  99.8680       206
  99.8900       224
  99.9120       218
  99.9340       221
  99.9560       228
  99.9780       220
 100.0000       223
 100.0220       229
 100.0440       205
 100.0660       230
 100.0880       220
 100.1100       219
 100.1320       241
 100.1540       241
 100.1760       245
 100.1980       207
 100.2200       216
 100.2420       223
 100.2640       264
 100.2860       232
 100.3080       240
 100.3300       242
 100.3520       209
 100.3740       218
 100.3960       228
 100.4180       230
 100.4400       255
 100.4620       219
 100.4840       247
 100.5060       257
 100.5280       243
 100.5500       257
 100.5720       239
 100.5940       255
 100.6160       236
 100.6380       248
 100.6600       297
 100.6820       260
 100.7040       279
 100.7260       268
 100.7480       248
 100.7700       282
 100.7920       240
 100.8140       258
 100.8360       279
 100.8580       255
 100.8800       268
 100.9020       230
 100.9240       237
 100.9460       242
 100.9680       261
 100.9900       249
 101.0120       246
 101.0340       261
 101.0560       245
 101.0780       224
 101.1000       254
 101.1220       261
 101.1440       269
 101.1660       242
 101.1880       229
 101.2100       232
 101.2320       241
 101.2540       235
 101.2760       223
 101.2980       223
 101.3200       249
 101.3420       240
 101.3640       229
 101.3860       219
 101.4080       206
 101.4300       238
 101.4520       215
 101.4740       247
 101.4960       210
 101.5180       229
 101.5400       253
 101.5620       252
 101.5840       244
 101.6060       226
 101.6280       213
 101.6500       222
 101.6720       218
 101.6940       243
 101.7160       217
 101.7380       228
 101.7600       229
 101.7820       214
 101.8040       239
 101.8260       195
 101.8480       216
 101.8700       235
 101.8920       214
 101.9140       230
 101.9360       220
 101.9580       241
 101.9800       214
 102.0020       215
 102.0240       203
 102.0460       196
 102.0680       194
 102.0900       206
 102.1120       203
 102.1340       216
 102.1560       233
 102.1780       229
 102.2000       239
 102.2220       242
 102.2440       216
 102.2660       211
 102.2880       210
 102.3100       223
 102.3320       209
 102.3540       248
 102.3760       183
 102.3980       229
 102.4200       212
 102.4420       218
 102.4640       254
 102.4860       229
 102.5080       191
 102.5300       213
 102.5520       195
 102.5740       215
 102.5960       212
 102.6180       212
 102.6400       234
 102.6620       235
 102.6840       211
 102.7060       193
 102.7280       208
 102.7500       231
 102.7720       188
 102.7940       215
 102.8160       196
 102.8380       186
 102.8600       171
 102.8820       231
 102.9040       218
 102.9260       215
 102.9480       217
 102.9700       223
 102.9920       246
 103.0140       196
 103.0360       222
 103.0580       217
 103.0800       207
 103.1020       198
 103.1240       226
 103.1460       217
 103.1680       202
 103.1900       210
 103.2120       212
 103.2340       183
 103.2560       214
 103.2780       231
 103.3000       192
 103.3220       207
 103.3440       215
 103.3660       237
 103.3880       220
 103.4100       198
 103.4320       247
 103.4540       184
 103.4760       210
 103.4980       211
 103.5200       212
 103.5420       230
 103.5640       198
 103.5860       212
 103.6080       239
 103.6300       209
 103.6520       210
 103.6740       207
 103.6960       238
 103.7180       238
 103.7400       221
 103.7620       205
 103.7840       223
 103.8060       215
 103.8280       197
 103.8500       190
 103.8720       194
 103.8940       194
 103.9160       217
 103.9380       202
 103.9600       220
 103.9820       213
 104.0040       219
 104.0260       232
 104.0480       189
 104.0700       219
 104.0920       233
 104.1140       217
 104.1360       238
 104.1580       196
 104.1800       213
 104.2020       199
 104.2240       218
 104.2460       215
 104.2680       223
 104.2900       233
 104.3120       210
 104.3340       196
 104.3560       206
 104.3780       220
 104.4000       228
 104.4220       234
 104.4440       191
 104.4660       214
 104.4880       205
 104.5100       218
 104.5320       228
 104.5540       202
 104.5760       226
 104.5980       194
 104.6200       228
 104.6420       206
 104.6640       207
 104.6860       199
 104.7080       197
 104.7300       205
 104.7520       215
 104.7740       241
 104.7960       221
 104.8180       232
 104.8400       205
 104.8620       198
 104.8840       226
 104.9060       226
 104.9280       199
 104.9500       221
 104.9720       213
 104.9940       217
 105.0160       210
 105.0380       215
 105.0600       201
 105.0820       190
 105.1040       218
 105.1260       235
 105.1480       210
 105.1700       217
 105.1920       226
 105.2140       211
 105.2360       187
 105.2580       228
 105.2800       221
 105.3020       211
 105.3240       203
 105.3460       209
 105.3680       193
 105.3900       216
 105.4120       223
 105.4340       192
 105.4560       222
 105.4780       197
 105.5000       210
 105.5220       220
 105.5440       218
 105.5660       220
 105.5880       248
 105.6100       220
 105.6320       203
 105.6540       190
 105.6760       212
 105.6980       240
 105.7200       199
 105.7420       240
 105.7640       201
 105.7860       233
 105.8080       220
 105.8300       232
 105.8520       238
 105.8740       206
 105.8960       220
 105.9180       230
 105.9400       197
 105.9620       187
 105.9840       224
 106.0060       217
 106.0280       227
 106.0500       216
 106.0720       210
 106.0940       212
 106.1160       193
 106.1380       205
 106.1600       213
 106.1820       234
 106.2040       214
 106.2260       218
 106.2480       233
 106.2700       230
 106.2920       215
 106.3140       193
 106.3360       223
 106.3580       198
 106.3800       221
 106.4020       240
 106.4240       212
 106.4460       230
 106.4680       215
 106.4900       198
 106.5120       196
 106.5340       211
 106.5560       247
 106.5780       211
 106.6000       243
 106.6220       207
 106.6440       201
 106.6660       238
 106.6880       191
 106.7100       237
 106.7320       219
 106.7540       200
 106.7760       227
 106.7980       198
 106.8200       211
 106.8420       204
 106.8640       187
 106.8860       191
 106.9080       211
 106.9300       242
 106.9520       214
 106.9740       204
 106.9960       226
 107.0180       192
 107.0400       217
 107.0620       216
 107.0840       229
 107.1060       222
 107.1280       197
 107.1500       197
 107.1720       233
 107.1940       240
 107.2160       212
 107.2380       227
 107.2600       240
 107.2820       232
 107.3040       246
 107.3260       219
 107.3480       220
 107.3700       213
 107.3920       217
 107.4140       183
 107.4360       220
 107.4580       191
 107.4800       227
 107.5020       230
 107.5240       215
 107.5460       193
 107.5680       224
 107.5900       207
 107.6120       207
 107.6340       211
 107.6560       193
 107.6780       253
 107.7000       232
 107.7220       209
 107.7440       237
 107.7660       222
 107.7880       178
 107.8100       209
 107.8320       219
 107.8540       238
 107.8760       208
 107.8980       205
 107.9200       214
 107.9420       225
 107.9640       200
 107.9860       215
 108.0080       239
 108.0300       238
 108.0520       225
 108.0740       219
 108.0960       196
 108.1180       207
 108.1400       224
 108.1620       221
 108.1840       259
 108.2060       230
 108.2280       247
 108.2500       200
 108.2720       218
 108.2940       212
 108.3160       231
 108.3380       239
 108.3600       229
 108.3820       258
 108.4040       219
 108.4260       184
 108.4480       206
 108.4700       227
 108.4920       199
 108.5140       208
 108.5360       203
 108.5580       203
 108.5800       239
 108.6020       204
 108.6240       237
 108.6460       240
 108.6680       191
 108.6900       232
 108.7120       227
 108.7340       254
 108.7560       243
 108.7780       234
 108.8000       242
 108.8220       253
 108.8440       233
 108.8660       190
 108.8880       234
 108.9100       216
 108.9320       204
 108.9540       233
 108.9760       214
 108.9980       217
 109.0200       228
 109.0420       224
 109.0640       245
 109.0860       218
 109.1080       240
 109.1300       209
 109.1520       199
 109.1740       237
 109.1960       221
 109.2180       226
 109.2400       213
 109.2620       236
 109.2840       230
 109.3060       211
 109.3280       199
 109.3500       218
 109.3720       243
 109.3940       239
 109.4160       235
 109.4380       226
 109.4600       221
 109.4820       205
 109.5040       224
 109.5260       234
 109.5480       209
 109.5700       214
 109.5920       241
 109.6140       225
 109.6360       247
 109.6580       227
 109.6800       217
 109.7020       221
 109.7240       213
 109.7460       249
 109.7680       219
 109.7900       243
 109.8120       233
 109.8340       226
 109.8560       214
 109.8780       244
 109.9000       241
 109.9220       211
 109.9440       252
 109.9660       258
 109.9880       243
 110.0100       239
 110.0320       236
 110.0540       232
 110.0760       244
 110.0980       231
 110.1200       245
 110.1420       223
 110.1640       243
 110.1860       234
 110.2080       253
 110.2300       241
 110.2520       213
 110.2740       268
 110.2960       244
 110.3180       234
 110.3400       268
 110.3620       259
 110.3840       243
 110.4060       247
 110.4280       229
 110.4500       264
 110.4720       288
 110.4940       264
 110.5160       238
 110.5380       247
 110.5600       261
 110.5820       256
 110.6040       255
 110.6260       275
 110.6480       267
 110.6700       281
 110.6920       277
 110.7140       253
 110.7360       260
 110.7580       286
 110.7800       259
 110.8020       271
 110.8240       268
 110.8460       265
 110.8680       243
 110.8900       268
 110.9120       250
 110.9340       247
 110.9560       253
 110.9780       262
 111.0000       239
 111.0220       274
 111.0440       230
 111.0660       245
 111.0880       238
 111.1100       249
 111.1320       239
 111.1540       269
 111.1760       249
 111.1980       236
 111.2200       236
 111.2420       265
 111.2640       234
 111.2860       239
 111.3080       225
 111.3300       224
 111.3520       240
 111.3740       239
 111.3960       239
 111.4180       241
 111.4400       243
 111.4620       220
 111.4840       254
 111.5060       230
 111.5280       227
 111.5500       258
 111.5720       243
 111.5940       223
 111.6160       220
 111.6380       195
 111.6600       217
 111.6820       235
 111.7040       198
 111.7260       195
 111.7480       230
 111.7700       259
 111.7920       219
 111.8140       222
 111.8360       204
 111.8580       237
 111.8800       237
 111.9020       238
 111.9240       241
 111.9460       205
 111.9680       227
 111.9900       221
 112.0120       222
 112.0340       238
 112.0560       206
 112.0780       232
 112.1000       218
 112.1220       235
 112.1440       210
 112.1660       237
 112.1880       234
 112.2100       221
 112.2320       243
 112.2540       236
 112.2760       198
 112.2980       229
 112.3200       218
 112.3420       252
 112.3640       240
 112.3860       238
 112.4080       244
 112.4300       216
 112.4520       232
 112.4740       209
 112.4960       248
 112.5180       215
 112.5400       215
 112.5620       212
 112.5840       222
 112.6060       239
 112.6280       238
 112.6500       239
 112.6720       235
 112.6940       203
 112.7160       216
 112.7380       237
 112.7600       235
 112.7820       232
 112.8040       217
 112.8260       248
 112.8480       216
 112.8700       254
 112.8920       216
 112.9140       207
 112.9360       209
 112.9580       249
 112.9800       210
 113.0020       264
 113.0240       233
 113.0460       274
 113.0680       224
 113.0900       217
 113.1120       225
 113.1340       233
 113.1560       240
 113.1780       206
 113.2000       206
 113.2220       250
 113.2440       210
 113.2660       213
 113.2880       250
 113.3100       229
 113.3320       211
 113.3540       207
 113.3760       193
 113.3980       211
 113.4200       228
 113.4420       217
 113.4640       219
 113.4860       212
 113.5080       238
 113.5300       229
 113.5520       217
 113.5740       230
 113.5960       217
 113.6180       226
 113.6400       239
 113.6620       201
 113.6840       226
 113.7060       230
 113.7280       220
 113.7500       233
 113.7720       231
 113.7940       216
 113.8160       199
 113.8380       254
 113.8600       228
 113.8820       224
 113.9040       234
 113.9260       235
 113.9480       211
 113.9700       253
 113.9920       233
 114.0140       231
 114.0360       258
 114.0580       219
 114.0800       216
 114.1020       236
 114.1240       233
 114.1460       214
 114.1680       231
 114.1900       240
 114.2120       232
 114.2340       241
 114.2560       224
 114.2780       232
 114.3000       203
 114.3220       225
 114.3440       229
 114.3660       222
 114.3880       243
 114.4100       266
 114.4320       239
 114.4540       219
 114.4760       219
 114.4980       200
 114.5200       254
 114.5420       235
 114.5640       257
 114.5860       241
 114.6080       231
 114.6300       238
 114.6520       220
 114.6740       225
 114.6960       249
 114.7180       222
 114.7400       223
 114.7620       218
 114.7840       224
 114.8060       248
 114.8280       220
 114.8500       244
 114.8720       227
 114.8940       228
 114.9160       248
 114.9380       236
 114.9600       218
 114.9820       254
 115.0040       265
 115.0260       226
 115.0480       226
 115.0700       224
 115.0920       228
 115.1140       247
 115.1360       250
 115.1580       225
 115.1800       234
 115.2020       253
 115.2240       263
 115.2460       272
 115.2680       256
 115.2900       230
 115.3120       247
 115.3340       253
 115.3560       250
 115.3780       261
 115.4000       253
 115.4220       238
 115.4440       223
 115.4660       254
 115.4880       244
 115.5100       251
 115.5320       237
 115.5540       273
 115.5760       248
 115.5980       219
 115.6200       252
 115.6420       257
 115.6640       263
 115.6860       236
 115.7080       229
 115.7300       262
 115.7520       263
 115.7740       268
 115.7960       257
 115.8180       275
 115.8400       233
 115.8620       279
 115.8840       261
 115.9060       270
 115.9280       273
 115.9500       269
 115.9720       260
 115.9940       255
 116.0160       292
 116.0380       243
 116.0600       243
 116.0820       263
 116.1040       241
 116.1260       258
 116.1480       277
 116.1700       245
 116.1920       260
 116.2140       238
 116.2360       260
 116.2580       256
 116.2800       258
 116.3020       250
 116.3240       252
 116.3460       265
 116.3680       265
 116.3900       230
 116.4120       238
 116.4340       270
 116.4560       236
 116.4780       251
 116.5000       252
 116.5220       267
 116.5440       257
 116.5660       233
 116.5880       239
 116.6100       232
 116.6320       240
 116.6540       244
 116.6760       257
 116.6980       264
 116.7200       249
 116.7420       250
 116.7640       246
 116.7860       249
 116.8080       223
 116.8300       244
 116.8520       258
 116.8740       262
 116.8960       216
 116.9180       211
 116.9400       221
 116.9620       251
 116.9840       232
 117.0060       224
 117.0280       230
 117.0500       275
 117.0720       268
 117.0940       236
 117.1160       237
 117.1380       250
 117.1600       252
 117.1820       228
 117.2040       227
 117.2260       218
 117.2480       235
 117.2700       220
 117.2920       229
 117.3140       203
 117.3360       255
 117.3580       218
 117.3800       196
 117.4020       190
 117.4240       250
 117.4460       268
 117.4680       231
 117.4900       248
 117.5120       220
 117.5340       251
 117.5560       231
 117.5780       235
 117.6000       255
 117.6220       241
 117.6440       221
 117.6660       259
 117.6880       216
 117.7100       226
 117.7320       205
 117.7540       249
 117.7760       236
 117.7980       226
 117.8200       255
 117.8420       224
 117.8640       201
 117.8860       227
 117.9080       232
 117.9300       247
 117.9520       240
 117.9740       225
 117.9960       237
 118.0180       214
 118.0400       230
 118.0620       246
 118.0840       236
 118.1060       221
 118.1280       250
 118.1500       225
 118.1720       251
 118.1940       228
 118.2160       209
 118.2380       246
 118.2600       218
 118.2820       223
 118.3040       238
 118.3260       214
 118.3480       253
 118.3700       203
 118.3920       198
 118.4140       250
 118.4360       222
 118.4580       248
 118.4800       252
 118.5020       235
 118.5240       239
 118.5460       204
 118.5680       250
 118.5900       236
 118.6120       234
 118.6340       238
 118.6560       217
 118.6780       229
 118.7000       231
 118.7220       233
 118.7440       244
 118.7660       224
 118.7880       220
 118.8100       215
 118.8320       225
 118.8540       234
 118.8760       220
 118.8980       245
 118.9200       226
 118.9420       249
 118.9640       239
 118.9860       238
 119.0080       246
 119.0300       232
 119.0520       234
 119.0740       244
 119.0960       243
 119.1180       246
 119.1400       226
 119.1620       214
 119.1840       244
 119.2060       244
 119.2280       219
 119.2500       228
 119.2720       223
 119.2940       241
 119.3160       212
 119.3380       228
 119.3600       222
 119.3820       241
 119.4040       228
 119.4260       243
 119.4480       245
 119.4700       227
 119.4920       225
 119.5140       242
 119.5360       228
 119.5580       237
 119.5800       201
 119.6020       222
 119.6240       215
 119.6460       229
 119.6680       237
 119.6900       249
 119.7120       233
 119.7340       247
 119.7560       213
 119.7780       231
 119.8000       230
 119.8220       228
 119.8440       233
 119.8660       229
 119.8880       252
 119.9100       219
 119.9320       254
 119.9540       222
 119.9760       253
 119.9980       219
 120.0200       243
 120.0420       234
 120.0640       276
 120.0860       260
 120.1080       244
 120.1300       238
 120.1520       244
 120.1740       238
 120.1960       259
 120.2180       268
 120.2400       231
 120.2620       224
 120.2840       279
 120.3060       226
 120.3280       242
 120.3500       232
 120.3720       252
 120.3940       224
 120.4160       248
 120.4380       244
 120.4600       244
 120.4820       248
 120.5040       240
 120.5260       236
 120.5480       202
 120.5700       240
 120.5920       235
 120.6140       246
 120.6360       245
 120.6580       236
 120.6800       246
 120.7020       263
 120.7240       246
 120.7460       238
 120.7680       271
 120.7900       247
 120.8120       225
 120.8340       242
 120.8560       232
 120.8780       255
 120.9000       299
 120.9220       230
 120.9440       271
 120.9660       257
 120.9880       261
 121.0100       276
 121.0320       253
 121.0540       266
 121.0760       248
 121.0980       216
 121.1200       242
 121.1420       210
 121.1640       266
 121.1860       261
 121.2080       239
 121.2300       252
 121.2520       262
 121.2740       273
 121.2960       268
 121.3180       272
 121.3400       285
 121.3620       240
 121.3840       265
 121.4060       268
 121.4280       250
 121.4500       268
 121.4720       267
 121.4940       259
 121.5160       251
 121.5380       265
 121.5600       254
 121.5820       292
 121.6040       264
 121.6260       259
 121.6480       269
 121.6700       267
 121.6920       258
 121.7140       272
 121.7360       273
 121.7580       268
 121.7800       251
 121.8020       265
 121.8240       250
 121.8460       242
 121.8680       275
 121.8900       251
 121.9120       270
 121.9340       293
 121.9560       234
 121.9780       241
 122.0000       246
